time,seconds_elapsed,z,y,x
1714858316564597800,0.14259765625,8.38449478149414,4.299986362457275,-1.4891934394836426
1714858316574545400,0.15254541015625,8.006210327148438,4.271255970001221,-1.6615760326385498
1714858316584494000,0.162494140625,7.929595947265625,4.290409564971924,-1.766920804977417
1714858316594444300,0.1724443359375,8.33182144165039,4.280832767486572,-1.7717092037200928
1714858316604395500,0.1823955078125,9.026140213012695,4.199429988861084,-1.5514427423477173
1714858316614347500,0.192347412109375,9.648633003234863,4.185064792633057,-1.2545616626739502
1714858316624300500,0.202300537109375,10.002974510192871,4.228160381317139,-1.1444283723831177
1714858316634254300,0.21225439453125,9.979032516479492,4.242525577545166,-1.1540051698684692
1714858316644208400,0.22220849609375,9.62947940826416,4.256890773773193,-1.1875240802764893
1714858316654163000,0.232162841796875,9.093177795410156,4.242525577545166,-1.2976573705673218
1714858316664117500,0.242117431640625,8.485051155090332,4.189853191375732,-1.4413094520568848
1714858316674069000,0.252069091796875,7.996633529663086,4.165910720825195,-1.680729627609253
1714858316684018400,0.262018310546875,7.824251174926758,4.151545524597168,-1.8483237028121948
1714858316693968000,0.2719677734375,8.145073890686035,4.170699596405029,-1.7477672100067139
1714858316703917300,0.281917236328125,8.987833023071289,4.151545524597168,-1.6280571222305298
1714858316713866800,0.29186669921875,9.749189376831055,4.050989151000977,-1.53707754611969
1714858316723816000,0.30181591796875,9.931148529052734,3.9408559799194336,-1.4317326545715332
1714858316733765400,0.311765380859375,9.720458984375,3.9695863723754883,-1.2737152576446533
1714858316743714800,0.32171484375,9.437943458557129,4.094084739685059,-1.2545616626739502
1714858316753664300,0.331664306640625,9.117119789123535,4.180276393890381,-1.2976573705673218
1714858316763613400,0.341613525390625,8.777143478393555,4.156333923339844,-1.3934253454208374
1714858316773563000,0.35156298828125,8.580819129943848,4.113238334655762,-1.4460978507995605
1714858316783512300,0.36151220703125,8.523358345031738,4.0749311447143555,-1.479616641998291
1714858316793461800,0.371461669921875,8.604761123657227,4.050989151000977,-1.53707754611969
1714858316803411000,0.381410888671875,8.911218643188477,4.113238334655762,-1.5179238319396973
1714858316813360400,0.3913603515625,9.308655738830566,4.2329487800598145,-1.3742717504501343
1714858316823309800,0.401309814453125,9.610325813293457,4.266467571258545,-1.2018892765045166
1714858316833259300,0.41125927734375,9.758766174316406,4.247313976287842,-1.1204863786697388
1714858316843208400,0.42120849609375,9.634267807006836,4.151545524597168,-1.1635819673538208
1714858316853158000,0.431157958984375,9.394847869873047,4.1611223220825195,-1.091755986213684
1714858316863107300,0.441107421875,9.423578262329102,4.314351558685303,-1.0103530883789062
1714858316873056800,0.451056884765625,9.600749015808105,4.32871675491333,-1.0678139925003052
1714858316883006000,0.461005859375,9.710882186889648,4.146757125854492,-1.235408067703247
1714858316892955400,0.470955322265625,9.696516990661621,3.9839515686035156,-1.359906554222107
1714858316902904800,0.48090478515625,9.519346237182617,3.9695863723754883,-1.4077905416488647
1714858316912854300,0.490854248046875,9.351752281188965,3.9887399673461914,-1.479616641998291
1714858316922803500,0.500803466796875,9.38048267364502,4.060565948486328,-1.4939818382263184
1714858316932753000,0.5107529296875,9.361329078674316,4.098873138427734,-1.3934253454208374
1714858316942702300,0.520702392578125,9.260771751403809,4.065354347229004,-1.3120225667953491
1714858316952651800,0.53065185546875,9.255983352661133,4.146757125854492,-1.173158884048462
1714858316962601000,0.54060107421875,9.279925346374512,4.223371982574463,-1.1109095811843872
1714858316972550400,0.55055029296875,9.265560150146484,4.127603530883789,-1.1875240802764893
1714858316982499800,0.560499755859375,9.107542991638184,3.8977603912353516,-1.3694833517074585
1714858316992449300,0.57044921875,8.83939266204834,3.758896589279175,-1.6184803247451782
1714858317002398700,0.580398681640625,8.705317497253418,3.778050184249878,-1.7860745191574097
1714858317012348400,0.590348388671875,8.556877136230469,3.821146011352539,-1.7573440074920654
1714858317022297900,0.6002978515625,8.62391471862793,3.9600095748901367,-1.4891934394836426
1714858317032247300,0.610247314453125,8.820239067077637,4.079719543457031,-1.41257905960083
1714858317042196700,0.62019677734375,8.987833023071289,4.0749311447143555,-1.4173674583435059
1714858317052146200,0.630146240234375,9.11233139038086,4.022258758544922,-1.556231141090393
1714858317062095600,0.640095703125,9.093177795410156,3.8498764038085938,-1.699883222579956
1714858317072045300,0.65004541015625,9.126696586608887,3.825934410095215,-1.6328455209732056
1714858317081994800,0.659994873046875,9.366117477416992,4.036623954772949,-1.403002142906189
1714858317091944200,0.669944091796875,9.667786598205566,4.252102375030518,-1.0582371950149536
1714858317101893600,0.6798935546875,9.830592155456543,4.314351558685303,-0.7709329724311829
1714858317111843000,0.689843017578125,9.768342971801758,4.3191399574279785,-0.790086567401886
1714858317121792500,0.69979248046875,9.557653427124023,4.271255970001221,-1.0582371950149536
1714858317131742000,0.709741943359375,9.643844604492188,4.247313976287842,-1.3407529592514038
1714858317141691600,0.719691650390625,10.232817649841309,4.3191399574279785,-1.3120225667953491
1714858317151641000,0.72964111328125,10.591948509216309,4.376600742340088,-1.0869675874710083
1714858317161590500,0.739590576171875,10.381258964538574,4.4292731285095215,-0.8331822156906128
1714858317171540000,0.7495400390625,10.156203269958496,4.505887508392334,-0.8571242094039917
1714858317181489400,0.759489501953125,10.362105369567871,4.639962673187256,-1.0295066833496094
1714858317191438800,0.76943896484375,11.099518775939941,4.726154327392578,-1.072602391242981
1714858317201388500,0.779388427734375,11.027692794799805,4.496310710906982,-0.8379706144332886
1714858317211338000,0.789337890625,9.797073364257812,4.309563159942627,-0.7422025203704834
1714858317221287400,0.799287353515625,8.89685344696045,4.280832767486572,-0.8810662031173706
1714858317231236900,0.80923681640625,8.192957878112793,4.352658748626709,-1.2449848651885986
1714858317241186300,0.819186279296875,7.790732383728027,4.587290287017822,-1.7525556087493896
1714858317251135700,0.8291357421875,7.642292022705078,5.008669853210449,-2.1068975925445557
1714858317261085200,0.839085205078125,8.159439086914062,5.549759387969971,-2.0254945755004883
1714858317271035000,0.849034912109375,8.547300338745117,5.870582580566406,-1.5131354331970215
1714858317280984300,0.858984375,8.125920295715332,5.880159378051758,-1.115697979927063
1714858317290933800,0.868933837890625,7.359776020050049,5.717353820800781,-1.1348515748977661
1714858317300883200,0.87888330078125,6.646304130554199,5.348646640777588,-1.5849615335464478
1714858317310832600,0.88883251953125,5.841852188110352,4.98472785949707,-2.2026655673980713
1714858317320782000,0.898781982421875,5.348646640777588,4.611232280731201,-2.868253707885742
1714858317330731500,0.9087314453125,5.774814605712891,4.548983097076416,-3.265691041946411
1714858317340681000,0.918680908203125,6.799532890319824,4.577713489532471,-3.3854012489318848
1714858317350630400,0.92863037109375,7.661445617675781,4.54419469833374,-3.021482467651367
1714858317360579800,0.938579833984375,8.202534675598145,4.7405195236206055,-2.1930887699127197
1714858317370529300,0.948529296875,8.250418663024902,4.836287498474121,-1.37906014919281
1714858317380478500,0.958478515625,8.063671112060547,4.812345504760742,-0.9241618514060974
1714858317390428000,0.968427978515625,7.920019149780273,4.912901878356934,-0.9241618514060974
1714858317400377300,0.97837744140625,8.087613105773926,4.960785865783691,-1.4173674583435059
1714858317410326800,0.988326904296875,8.595184326171875,4.869806289672852,-1.8195933103561401
1714858317420276200,0.998276123046875,9.030928611755371,4.807557106018066,-1.800439715385437
1714858317430225700,1.0082255859375,9.289502143859863,4.788403511047363,-1.5753847360610962
1714858317440175000,1.018175048828125,9.327810287475586,4.726154327392578,-1.460463047027588
1714858317450124500,1.02812451171875,9.251194953918457,4.759673118591309,-1.3503297567367554
1714858317460074000,1.038073974609375,9.23682975769043,4.970362663269043,-1.216254472732544
1714858317470023400,1.0480234375,9.232041358947754,5.17626428604126,-1.292868971824646
1714858317479972900,1.057972900390625,8.643068313598633,5.214571475982666,-1.3982137441635132
1714858317489922300,1.06792236328125,8.101978302001953,5.171475887298584,-1.4939818382263184
1714858317499871700,1.077871826171875,8.08282470703125,5.123591423034668,-1.8195933103561401
1714858317509821200,1.0878212890625,8.283937454223633,4.9799394607543945,-2.1930887699127197
1714858317519770600,1.0977705078125,8.513781547546387,4.616020679473877,-2.561795711517334
1714858317529720000,1.107719970703125,8.547300338745117,4.180276393890381,-2.7964274883270264
1714858317539669500,1.11766943359375,8.456320762634277,3.9600095748901367,-2.801215887069702
1714858317549619000,1.127618896484375,8.451532363891602,3.8786067962646484,-2.9065608978271484
1714858317559568400,1.137568359375,9.198522567749023,3.754108190536499,-2.8586769104003906
1714858317569517800,1.147517822265625,10.649409294128418,3.620033025741577,-2.557007312774658
1714858317579467000,1.157467041015625,11.487380027770996,3.5625722408294678,-2.0877439975738525
1714858317589416400,1.16741650390625,11.587936401367188,3.485957622528076,-1.843535304069519
1714858317599366000,1.177365966796875,11.276689529418945,3.5913026332855225,-1.9345149993896484
1714858317609315300,1.1873154296875,10.745177268981934,4.0078935623168945,-1.867477297782898
1714858317619264800,1.1972646484375,10.089165687561035,4.443638324737549,-1.4891934394836426
1714858317629214200,1.207214111328125,9.557653427124023,4.501099109649658,-1.3694833517074585
1714858317639163600,1.21716357421875,9.136273384094238,4.271255970001221,-1.359906554222107
1714858317649113000,1.227113037109375,8.882488250732422,3.9887399673461914,-1.335964560508728
1714858317659062500,1.2370625,8.901641845703125,3.993528366088867,-1.2689268589019775
1714858317669012000,1.247011962890625,9.490615844726562,4.156333923339844,-1.335964560508728
1714858317678961400,1.25696142578125,9.816226959228516,4.309563159942627,-1.3551181554794312
1714858317688910800,1.266910888671875,9.47146224975586,4.702212333679199,-1.115697979927063
1714858317698860300,1.2768603515625,9.02135181427002,5.142745018005371,-0.9768342971801758
1714858317708809700,1.286809814453125,8.547300338745117,5.114014625549316,-1.2066776752471924
1714858317718759200,1.29675927734375,8.259995460510254,4.697423934936523,-1.2641384601593018
1714858317728708600,1.30670849609375,8.604761123657227,4.367023944854736,-1.3886369466781616
1714858317738658000,1.316657958984375,9.241618156433105,4.1180267333984375,-1.6136919260025024
1714858317748607500,1.326607421875,9.667786598205566,3.97916316986084,-1.6424223184585571
1714858317758557000,1.336556884765625,9.77791976928711,3.912125587463379,-1.6615760326385498
1714858317768506400,1.34650634765625,9.53849983215332,3.9264907836914062,-1.4413094520568848
1714858317778455600,1.35645556640625,9.404424667358398,4.23773717880249,-1.2880805730819702
1714858317788405000,1.366405029296875,9.160215377807617,4.60165548324585,-1.1971008777618408
1714858317798354400,1.3763544921875,8.676587104797363,4.606443881988525,-0.933738648891449
1714858317808303900,1.386303955078125,8.341399192810059,4.596867084503174,-0.7757213711738586
1714858317818253300,1.39625341796875,8.164227485656738,4.63517427444458,-1.1492167711257935
1714858317828202800,1.40620263671875,8.245630264282227,4.5154643058776855,-1.699883222579956
1714858317838152200,1.416152099609375,8.494627952575684,4.376600742340088,-1.944091796875
1714858317848101600,1.4261015625,8.825027465820312,4.4292731285095215,-1.8962076902389526
1714858317858051000,1.436051025390625,9.23682975769043,4.529829502105713,-1.647210717201233
1714858317868000500,1.44600048828125,9.337387084960938,4.54419469833374,-1.37906014919281
1714858317877950000,1.455949951171875,9.500192642211914,4.572925090789795,-1.173158884048462
1714858317887899400,1.4658994140625,9.667786598205566,4.63517427444458,-0.9528923034667969
1714858317897848800,1.475848876953125,9.44752025604248,4.683058738708496,-0.7805097699165344
1714858317907798300,1.48579833984375,8.978256225585938,4.711789131164551,-0.8044517636299133
1714858317917747700,1.495747802734375,8.571242332458496,4.754884719848633,-0.9720458984375
1714858317927697200,1.505697265625,8.494627952575684,4.745307922363281,-1.1109095811843872
1714858317937646600,1.515646484375,8.667010307312012,4.726154327392578,-1.091755986213684
1714858317947596000,1.525595947265625,8.911218643188477,4.76924991607666,-1.0582371950149536
1714858317957545500,1.53554541015625,9.126696586608887,4.76924991607666,-1.1109095811843872
1714858317967494700,1.54549462890625,9.136273384094238,4.754884719848633,-1.1492167711257935
1714858317977444400,1.5554443359375,9.126696586608887,4.745307922363281,-1.158793568611145
1714858317987393800,1.565393798828125,9.016563415527344,4.788403511047363,-1.0773907899856567
1714858317997343200,1.57534326171875,8.868123054504395,4.841075897216797,-1.015141487121582
1714858318007292700,1.585292724609375,8.954314231872559,4.812345504760742,-1.0534487962722778
1714858318017242000,1.5952421875,9.050082206726074,4.721365928649902,-1.2018892765045166
1714858318027191600,1.605191650390625,9.08838939666748,4.707000732421875,-1.2976573705673218
1714858318037141200,1.615141357421875,9.074024200439453,4.730942726135254,-1.3120225667953491
1714858318047090700,1.625090576171875,9.002198219299316,4.697423934936523,-1.216254472732544
1714858318057040100,1.6350400390625,9.006986618041992,4.721365928649902,-1.1252747774124146
1714858318066989600,1.644989501953125,9.069235801696777,4.778826713562012,-0.9864110946655273
1714858318076939000,1.65493896484375,9.165003776550293,4.778826713562012,-0.8810662031173706
1714858318086888400,1.664888427734375,9.117119789123535,4.726154327392578,-1.0007762908935547
1714858318096838000,1.674837890625,8.916007041931152,4.644751071929932,-1.2641384601593018
1714858318106787600,1.68478759765625,8.825027465820312,4.496310710906982,-1.5179238319396973
1714858318116737000,1.694737060546875,8.844181060791016,4.467580318450928,-1.5945383310317993
1714858318126686500,1.7046865234375,9.045293807983398,4.577713489532471,-1.41257905960083
1714858318136636000,1.714635986328125,9.289502143859863,4.616020679473877,-1.1540051698684692
1714858318146585300,1.72458544921875,9.366117477416992,4.659116744995117,-0.9576807022094727
1714858318156534800,1.73453466796875,9.2033109664917,4.721365928649902,-0.8379706144332886
1714858318166484500,1.744484375,8.87291145324707,4.745307922363281,-0.8427590131759644
1714858318176434000,1.754433837890625,8.724471092224121,4.754884719848633,-0.8906430602073669
1714858318186383400,1.76438330078125,8.801085472106934,4.707000732421875,-0.9145850539207458
1714858318196332800,1.774332763671875,9.006986618041992,4.683058738708496,-0.9289502501487732
1714858318206282200,1.7842822265625,9.217676162719727,4.60165548324585,-1.0630255937576294
1714858318216231700,1.794231689453125,9.083600997924805,4.5825018882751465,-1.1971008777618408
1714858318226181000,1.80418115234375,8.939949035644531,4.668693542480469,-1.2258312702178955
1714858318236130800,1.814130859375,8.93037223815918,4.702212333679199,-1.1492167711257935
1714858318246080300,1.824080322265625,8.968679428100586,4.721365928649902,-1.0630255937576294
1714858318256029700,1.83402978515625,8.9064302444458,4.774038314819336,-0.9816226959228516
1714858318265979100,1.843979248046875,8.743624687194824,4.812345504760742,-0.9481038451194763
1714858318275928600,1.853928466796875,8.65743350982666,4.774038314819336,-0.9672574996948242
1714858318285878000,1.8638779296875,8.719682693481445,4.668693542480469,-1.1013327836990356
1714858318295827700,1.87382763671875,8.83939266204834,4.67827033996582,-1.1827356815338135
1714858318305777200,1.883777099609375,8.925583839416504,4.73573112487793,-1.1492167711257935
1714858318315726600,1.8937265625,8.882488250732422,4.707000732421875,-1.0821791887283325
1714858318325676000,1.903676025390625,8.786720275878906,4.726154327392578,-1.0055646896362305
1714858318335625500,1.91362548828125,8.762778282165527,4.750096321105957,-0.9911994934082031
1714858318345575000,1.923574951171875,8.829815864562988,4.707000732421875,-0.9959878921508789
1714858318355524400,1.9335244140625,8.925583839416504,4.697423934936523,-1.0534487962722778
1714858318365474000,1.94347412109375,8.901641845703125,4.76924991607666,-1.0295066833496094
1714858318375423500,1.953423583984375,8.887276649475098,4.807557106018066,-0.9624691009521484
1714858318385373000,1.963373046875,8.925583839416504,4.817133903503418,-0.8523358106613159
1714858318395322400,1.973322265625,8.987833023071289,4.817133903503418,-0.7565677165985107
1714858318405271800,1.983271728515625,9.069235801696777,4.759673118591309,-0.8140285611152649
1714858318415221200,1.99322119140625,9.059659004211426,4.716577529907227,-0.9576807022094727
1714858318425171000,2.0031708984375,8.983044624328613,4.707000732421875,-0.9959878921508789
1714858318435120400,2.013120361328125,8.911218643188477,4.73573112487793,-0.9145850539207458
1714858318445069800,2.02306982421875,8.892065048217773,4.793191909790039,-0.8427590131759644
1714858318455019300,2.033019287109375,8.863334655761719,4.788403511047363,-0.8379706144332886
1714858318464968700,2.04296875,8.801085472106934,4.764461517333984,-0.8667010068893433
1714858318474918100,2.052918212890625,8.777143478393555,4.702212333679199,-0.9720458984375
1714858318484867600,2.06286767578125,8.877699851989746,4.692635536193848,-1.0630255937576294
1714858318494817300,2.0728173828125,9.078812599182129,4.759673118591309,-1.0582371950149536
1714858318504766700,2.0827666015625,9.255983352661133,4.73573112487793,-1.0295066833496094
1714858318514716200,2.092716064453125,9.246406555175781,4.764461517333984,-0.9672574996948242
1714858318524665600,2.10266552734375,9.11233139038086,4.817133903503418,-0.8379706144332886
1714858318534615000,2.112614990234375,8.87291145324707,4.797980308532715,-0.8236053586006165
1714858318544564500,2.122564453125,8.676587104797363,4.76924991607666,-0.9481038451194763
1714858318554514000,2.132513916015625,8.59997272491455,4.750096321105957,-1.0438719987869263
1714858318564463000,2.142463134765625,8.743624687194824,4.702212333679199,-1.0534487962722778
1714858318574412500,2.15241259765625,9.11233139038086,4.606443881988525,-1.0773907899856567
1714858318584362000,2.162362060546875,9.399636268615723,4.501099109649658,-1.1348515748977661
1714858318594311400,2.1723115234375,9.370905876159668,4.54419469833374,-1.0869675874710083
1714858318604260900,2.1822607421875,9.165003776550293,4.616020679473877,-1.0295066833496094
1714858318614210300,2.192210205078125,8.925583839416504,4.649539470672607,-0.9289502501487732
1714858318624159700,2.20215966796875,8.83939266204834,4.730942726135254,-0.7374141216278076
1714858318634109200,2.212109130859375,8.815450668334961,4.821922302246094,-0.5650315880775452
1714858318644058600,2.22205859375,8.777143478393555,4.817133903503418,-0.5793967843055725
1714858318654008000,2.232008056640625,8.863334655761719,4.76924991607666,-0.6847416758537292
1714858318663957500,2.24195751953125,8.949525833129883,4.730942726135254,-0.8475474119186401
1714858318673907000,2.251906982421875,9.026140213012695,4.697423934936523,-0.9816226959228516
1714858318683856400,2.2618564453125,9.097966194152832,4.630385875701904,-1.0055646896362305
1714858318693805800,2.271805908203125,9.131484985351562,4.606443881988525,-0.9911994934082031
1714858318703755300,2.28175537109375,9.188945770263672,4.659116744995117,-1.0055646896362305
1714858318713704700,2.29170458984375,9.155426979064941,4.649539470672607,-0.9720458984375
1714858318723654100,2.301654052734375,8.992621421813965,4.644751071929932,-0.9481038451194763
1714858318733603600,2.311603515625,8.853757858276367,4.687847137451172,-0.9097966551780701
1714858318743553000,2.321552978515625,8.853757858276367,4.721365928649902,-0.8092401623725891
1714858318753502200,2.331502197265625,8.825027465820312,4.764461517333984,-0.7805097699165344
1714858318763451600,2.34145166015625,8.686163902282715,4.797980308532715,-0.8331822156906128
1714858318773401000,2.351401123046875,8.681375503540039,4.7836151123046875,-0.8331822156906128
1714858318783350500,2.3613505859375,8.738836288452148,4.745307922363281,-0.7948749661445618
1714858318793300000,2.371300048828125,8.810662269592285,4.711789131164551,-0.8427590131759644
1714858318803249400,2.38124951171875,8.887276649475098,4.654327869415283,-0.9672574996948242
1714858318813198800,2.39119873046875,8.887276649475098,4.616020679473877,-1.039083480834961
1714858318823148300,2.401148193359375,8.935160636901855,4.659116744995117,-0.9576807022094727
1714858318833097700,2.41109765625,9.097966194152832,4.692635536193848,-0.7996633648872375
1714858318843047200,2.421047119140625,9.14585018157959,4.697423934936523,-0.6799532771110535
1714858318852996600,2.43099658203125,9.169792175292969,4.759673118591309,-0.6512228846549988
1714858318862946000,2.440946044921875,9.21288776397705,4.788403511047363,-0.5746083855628967
1714858318872895500,2.4508955078125,9.2033109664917,4.7405195236206055,-0.545877993106842
1714858318882845000,2.460844970703125,9.083600997924805,4.716577529907227,-0.6655880808830261
1714858318892794400,2.47079443359375,8.939949035644531,4.683058738708496,-0.8571242094039917
1714858318902743800,2.480743896484375,8.87291145324707,4.620809078216553,-1.0199298858642578
1714858318912693200,2.490693359375,8.916007041931152,4.572925090789795,-1.0965443849563599
1714858318922642700,2.500642578125,9.074024200439453,4.5825018882751465,-1.0247182846069336
1714858318932592400,2.51059228515625,9.246406555175781,4.606443881988525,-0.9241618514060974
1714858318942541800,2.520541748046875,9.299078941345215,4.577713489532471,-0.9193734526634216
1714858318952491300,2.5304912109375,9.27034854888916,4.548983097076416,-1.0103530883789062
1714858318962440700,2.540440673828125,9.184157371520996,4.563348293304443,-1.039083480834961
1714858318972390100,2.55039013671875,9.141061782836914,4.553771495819092,-1.0103530883789062
1714858318982339600,2.560339599609375,9.093177795410156,4.5394062995910645,-0.9816226959228516
1714858318992289300,2.570289306640625,9.035717010498047,4.548983097076416,-0.9959878921508789
1714858319002238700,2.58023876953125,8.935160636901855,4.558559894561768,-1.0199298858642578
1714858319012188200,2.590188232421875,8.853757858276367,4.5394062995910645,-1.048660397529602
1714858319022137600,2.6001376953125,8.892065048217773,4.5394062995910645,-1.048660397529602
1714858319032087000,2.610087158203125,8.987833023071289,4.54419469833374,-1.0007762908935547
1714858319042036500,2.620036376953125,9.040505409240723,4.548983097076416,-0.9528923034667969
1714858319051986000,2.62998583984375,8.959102630615234,4.577713489532471,-0.9050082564353943
1714858319061935600,2.639935546875,8.844181060791016,4.620809078216553,-0.8379706144332886
1714858319071885000,2.649885009765625,8.767566680908203,4.611232280731201,-0.8188169598579407
1714858319081834500,2.65983447265625,8.815450668334961,4.568136692047119,-0.8906430602073669
1714858319091784000,2.669783935546875,8.920795440673828,4.577713489532471,-0.9385270476341248
1714858319101733400,2.6797333984375,8.949525833129883,4.611232280731201,-0.9193734526634216
1714858319111682800,2.689682861328125,8.892065048217773,4.630385875701904,-0.828393816947937
1714858319121632500,2.699632568359375,8.801085472106934,4.663905143737793,-0.7134721279144287
1714858319131582000,2.70958203125,8.877699851989746,4.721365928649902,-0.6703764796257019
1714858319141531400,2.719531494140625,9.040505409240723,4.716577529907227,-0.6847416758537292
1714858319151480800,2.729480712890625,9.05487060546875,4.63517427444458,-0.7661445140838623
1714858319161430300,2.73943017578125,8.93037223815918,4.6255974769592285,-0.8858546018600464
1714858319171379700,2.749379638671875,8.853757858276367,4.663905143737793,-0.9097966551780701
1714858319181329200,2.7593291015625,8.935160636901855,4.692635536193848,-0.8044517636299133
1714858319191278800,2.76927880859375,9.093177795410156,4.687847137451172,-0.7852981686592102
1714858319201228300,2.779228271484375,9.17936897277832,4.67827033996582,-0.7996633648872375
1714858319211177700,2.789177734375,9.165003776550293,4.697423934936523,-0.7422025203704834
1714858319221127200,2.799127197265625,9.069235801696777,4.726154327392578,-0.7661445140838623
1714858319231076600,2.80907666015625,8.80587387084961,4.721365928649902,-0.828393816947937
1714858319241026000,2.819026123046875,8.619126319885254,4.774038314819336,-0.7948749661445618
1714858319250975500,2.8289755859375,8.65743350982666,4.831499099731445,-0.7134721279144287
1714858319260925200,2.83892529296875,8.796297073364258,4.8267107009887695,-0.6368576288223267
1714858319270874600,2.84887451171875,8.954314231872559,4.812345504760742,-0.6224924325942993
1714858319280824000,2.858823974609375,9.08838939666748,4.774038314819336,-0.6751648783683777
1714858319290773500,2.8687734375,9.17936897277832,4.73573112487793,-0.7374141216278076
1714858319300723000,2.878722900390625,9.255983352661133,4.683058738708496,-0.7948749661445618
1714858319310672400,2.88867236328125,9.289502143859863,4.668693542480469,-0.7996633648872375
1714858319320622000,2.8986220703125,9.241618156433105,4.692635536193848,-0.7230489253997803
1714858319330571500,2.908571533203125,9.174580574035645,4.711789131164551,-0.6751648783683777
1714858319340521000,2.91852099609375,9.078812599182129,4.73573112487793,-0.646434485912323
1714858319350470400,2.928470458984375,9.074024200439453,4.716577529907227,-0.7134721279144287
1714858319360419800,2.938419921875,9.11233139038086,4.67827033996582,-0.8379706144332886
1714858319370369300,2.948369384765625,9.131484985351562,4.6734819412231445,-0.8906430602073669
1714858319380318700,2.958318603515625,9.169792175292969,4.67827033996582,-0.8523358106613159
1714858319390268400,2.968268310546875,9.131484985351562,4.697423934936523,-0.7996633648872375
1714858319400217900,2.9782177734375,9.016563415527344,4.711789131164551,-0.7613561153411865
1714858319410167300,2.988167236328125,8.887276649475098,4.716577529907227,-0.7326257228851318
1714858319420116700,2.99811669921875,8.80587387084961,4.726154327392578,-0.7326257228851318
1714858319430066200,3.008066162109375,8.810662269592285,4.754884719848633,-0.7134721279144287
1714858319440015600,3.018015625,8.829815864562988,4.7836151123046875,-0.6177040338516235
1714858319449965300,3.02796533203125,8.820239067077637,4.788403511047363,-0.569819986820221
1714858319459914800,3.037914794921875,8.825027465820312,4.778826713562012,-0.6177040338516235
1714858319469864200,3.0478642578125,8.848969459533691,4.73573112487793,-0.7230489253997803
1714858319479813600,3.057813720703125,8.901641845703125,4.702212333679199,-0.8379706144332886
1714858319489763000,3.06776318359375,9.002198219299316,4.67827033996582,-0.8427590131759644
1714858319499712500,3.07771240234375,9.040505409240723,4.6734819412231445,-0.8140285611152649
1714858319509662000,3.087661865234375,8.978256225585938,4.697423934936523,-0.790086567401886
1714858319519611600,3.097611572265625,8.9064302444458,4.721365928649902,-0.7757213711738586
1714858319529561000,3.10756103515625,8.89685344696045,4.716577529907227,-0.7565677165985107
1714858319539510500,3.117510498046875,8.877699851989746,4.726154327392578,-0.751779317855835
1714858319549460000,3.1274599609375,8.877699851989746,4.754884719848633,-0.6799532771110535
1714858319559409400,3.137409423828125,8.844181060791016,4.73573112487793,-0.6703764796257019
1714858319569358800,3.14735888671875,8.820239067077637,4.716577529907227,-0.7613561153411865
1714858319579308500,3.15730859375,8.863334655761719,4.697423934936523,-0.8331822156906128
1714858319589258000,3.167258056640625,8.93037223815918,4.654327869415283,-0.8523358106613159
1714858319599207400,3.17720751953125,8.983044624328613,4.67827033996582,-0.8331822156906128
1714858319609156900,3.187156982421875,9.050082206726074,4.707000732421875,-0.7613561153411865
1714858319619106300,3.197106201171875,9.083600997924805,4.711789131164551,-0.7374141216278076
1714858319629055700,3.2070556640625,9.016563415527344,4.687847137451172,-0.7709329724311829
1714858319639005200,3.217005126953125,8.935160636901855,4.668693542480469,-0.871489405632019
1714858319648955000,3.226954833984375,8.959102630615234,4.692635536193848,-0.828393816947937
1714858319658904300,3.236904296875,9.074024200439453,4.745307922363281,-0.6751648783683777
1714858319668853800,3.246853759765625,9.11233139038086,4.759673118591309,-0.5746083855628967
1714858319678803200,3.25680322265625,9.074024200439453,4.730942726135254,-0.6129156351089478
1714858319688752600,3.266752685546875,9.011775016784668,4.697423934936523,-0.7182605266571045
1714858319698702000,3.2767021484375,8.959102630615234,4.711789131164551,-0.7852981686592102
1714858319708651800,3.28665185546875,8.978256225585938,4.721365928649902,-0.7852981686592102
1714858319718601200,3.296601318359375,8.99740982055664,4.73573112487793,-0.7134721279144287
1714858319728550700,3.306550537109375,9.02135181427002,4.759673118591309,-0.6033388376235962
1714858319738500000,3.3165,9.040505409240723,4.764461517333984,-0.545877993106842
1714858319748449500,3.326449462890625,9.050082206726074,4.7405195236206055,-0.6224924325942993
1714858319758399000,3.33639892578125,9.059659004211426,4.711789131164551,-0.7134721279144287
1714858319768348400,3.346348388671875,9.02135181427002,4.7405195236206055,-0.7757213711738586
1714858319778298000,3.356298095703125,8.939949035644531,4.730942726135254,-0.8188169598579407
1714858319788247600,3.36624755859375,8.978256225585938,4.707000732421875,-0.7948749661445618
1714858319798197000,3.376197021484375,9.141061782836914,4.702212333679199,-0.727837324142456
1714858319808146400,3.386146484375,9.246406555175781,4.707000732421875,-0.689530074596405
1714858319818095900,3.396095947265625,9.265560150146484,4.692635536193848,-0.7469909191131592
1714858319828045300,3.40604541015625,9.2033109664917,4.63517427444458,-0.8571242094039917
1714858319837995000,3.4159951171875,9.035717010498047,4.620809078216553,-0.9768342971801758
1714858319847944400,3.4259443359375,8.791508674621582,4.620809078216553,-1.0582371950149536
1714858319857894000,3.435893798828125,8.662221908569336,4.649539470672607,-1.0247182846069336
1714858319867843300,3.44584326171875,8.705317497253418,4.692635536193848,-0.9193734526634216
1714858319877792800,3.455792724609375,8.791508674621582,4.726154327392578,-0.8044517636299133
1714858319887742200,3.4657421875,8.983044624328613,4.726154327392578,-0.7086837291717529
1714858319897691600,3.475691650390625,9.05487060546875,4.697423934936523,-0.6943184733390808
1714858319907641300,3.485641357421875,9.121908187866211,4.687847137451172,-0.7469909191131592
1714858319917590800,3.4955908203125,9.131484985351562,4.659116744995117,-0.7805097699165344
1714858319927540200,3.505540283203125,9.074024200439453,4.6734819412231445,-0.7230489253997803
1714858319937489700,3.51548974609375,9.08838939666748,4.692635536193848,-0.6655880808830261
1714858319947439000,3.525439208984375,9.064447402954102,4.683058738708496,-0.6560112833976746
1714858319957388500,3.535388427734375,9.016563415527344,4.668693542480469,-0.7086837291717529
1714858319967338200,3.545338134765625,8.992621421813965,4.659116744995117,-0.7230489253997803
1714858319977287700,3.55528759765625,9.045293807983398,4.639962673187256,-0.727837324142456
1714858319987237000,3.565237060546875,9.11233139038086,4.630385875701904,-0.7374141216278076
1714858319997186600,3.5751865234375,9.141061782836914,4.616020679473877,-0.7326257228851318
1714858320007136000,3.585135986328125,9.117119789123535,4.649539470672607,-0.6943184733390808
1714858320017085400,3.59508544921875,8.99740982055664,4.707000732421875,-0.646434485912323
1714858320027035000,3.605034912109375,8.877699851989746,4.759673118591309,-0.5841852426528931
1714858320036984600,3.614984619140625,8.87291145324707,4.764461517333984,-0.545877993106842
1714858320046934000,3.62493408203125,8.87291145324707,4.754884719848633,-0.5267243981361389
1714858320056883500,3.634883544921875,8.925583839416504,4.764461517333984,-0.507570743560791
1714858320066833000,3.6448330078125,8.987833023071289,4.774038314819336,-0.45010992884635925
1714858320076782300,3.6547822265625,8.954314231872559,4.774038314819336,-0.43095630407333374
1714858320086731800,3.664731689453125,8.93037223815918,4.76924991607666,-0.49799394607543945
1714858320096681200,3.67468115234375,8.911218643188477,4.707000732421875,-0.5650315880775452
1714858320106630700,3.684630615234375,8.925583839416504,4.67827033996582,-0.569819986820221
1714858320116580000,3.694580078125,9.011775016784668,4.6734819412231445,-0.6033388376235962
1714858320126529500,3.704529541015625,9.069235801696777,4.683058738708496,-0.6033388376235962
1714858320136479000,3.71447900390625,9.016563415527344,4.663905143737793,-0.6272808313369751
1714858320146428400,3.724428466796875,8.939949035644531,4.659116744995117,-0.6751648783683777
1714858320156377900,3.7343779296875,8.882488250732422,4.63517427444458,-0.727837324142456
1714858320166327300,3.744327392578125,8.834604263305664,4.611232280731201,-0.7948749661445618
1714858320176276700,3.75427685546875,8.80587387084961,4.577713489532471,-0.8571242094039917
1714858320186226200,3.76422607421875,8.796297073364258,4.577713489532471,-0.9050082564353943
1714858320196175600,3.774175537109375,8.78193187713623,4.5825018882751465,-0.9145850539207458
1714858320206125000,3.784125,8.78193187713623,4.568136692047119,-0.9385270476341248
1714858320216074200,3.79407421875,8.796297073364258,4.534617900848389,-1.0055646896362305
1714858320226023700,3.804023681640625,8.815450668334961,4.529829502105713,-1.0630255937576294
1714858320235973000,3.81397314453125,8.887276649475098,4.558559894561768,-1.0055646896362305
1714858320245922600,3.823922607421875,9.030928611755371,4.587290287017822,-0.8906430602073669
1714858320255872000,3.8338720703125,9.188945770263672,4.587290287017822,-0.828393816947937
1714858320265821400,3.843821533203125,9.265560150146484,4.572925090789795,-0.8523358106613159
1714858320275771000,3.85377099609375,9.160215377807617,4.553771495819092,-0.9097966551780701
1714858320285720300,3.86372021484375,9.040505409240723,4.558559894561768,-0.9624691009521484
1714858320295669800,3.873669677734375,9.016563415527344,4.587290287017822,-1.0055646896362305
1714858320305619200,3.883619140625,9.074024200439453,4.611232280731201,-0.9911994934082031
1714858320315568600,3.893568603515625,9.208099365234375,4.654327869415283,-0.8858546018600464
1714858320325518000,3.90351806640625,9.308655738830566,4.67827033996582,-0.7805097699165344
1714858320335467500,3.913467529296875,9.327810287475586,4.711789131164551,-0.6847416758537292
1714858320345417000,3.9234169921875,9.299078941345215,4.7405195236206055,-0.6272808313369751
1714858320355366400,3.933366455078125,9.208099365234375,4.745307922363281,-0.6129156351089478
1714858320365315800,3.94331591796875,9.11233139038086,4.754884719848633,-0.6703764796257019
1714858320375265300,3.953265380859375,9.074024200439453,4.764461517333984,-0.6991068720817566
1714858320385214700,3.963214599609375,9.150638580322266,4.754884719848633,-0.6129156351089478
1714858320395164200,3.9731640625,9.318233489990234,4.7405195236206055,-0.5937620401382446
1714858320405113600,3.983113525390625,9.313444137573242,4.726154327392578,-0.7038952708244324
1714858320415063000,3.99306298828125,9.165003776550293,4.692635536193848,-0.8619126081466675
1714858320425012700,4.0030126953125,9.035717010498047,4.654327869415283,-0.9050082564353943
1714858320434962200,4.012962158203125,9.17936897277832,4.67827033996582,-0.7852981686592102
1714858320444911600,4.02291162109375,9.433155059814453,4.6734819412231445,-0.7038952708244324
1714858320454861000,4.032861083984375,9.476250648498535,4.587290287017822,-0.6368576288223267
1714858320464810500,4.042810546875,9.428366661071777,4.6255974769592285,-0.6560112833976746
1714858320474760000,4.052760009765625,9.21288776397705,4.644751071929932,-0.6943184733390808
1714858320484709600,4.062709716796875,9.193734169006348,4.496310710906982,-0.727837324142456
1714858320494659000,4.0726591796875,9.064447402954102,4.529829502105713,-0.8140285611152649
1714858320504608500,4.0826083984375,9.08838939666748,4.831499099731445,-0.8092401623725891
1714858320514558000,4.092557861328125,10.022128105163574,5.04218864440918,-0.45489832758903503
1714858320524507400,4.10250732421875,11.161767959594727,5.013458251953125,0.06703764945268631
1714858320534456800,4.112456787109375,11.434707641601562,4.788403511047363,0.11013327538967133
1714858320544406300,4.12240625,11.401188850402832,4.63517427444458,-0.2537853717803955
1714858320554356000,4.13235595703125,10.572794914245605,4.5825018882751465,-0.5746083855628967
1714858320564305400,4.142305419921875,9.337387084960938,4.788403511047363,-0.6943184733390808
1714858320574254800,4.1522548828125,8.389283180236816,5.185841083526611,-0.47405192255973816
1714858320584204300,4.162204345703125,7.580042362213135,5.4013190269470215,-0.2346317619085312
1714858320594153700,4.17215380859375,6.789956092834473,5.746084213256836,0.11013327538967133
1714858320604103200,4.182103271484375,7.283161640167236,5.856217384338379,0.8906430602073669
1714858320614052900,4.192052978515625,7.393294811248779,5.635950565338135,1.2832920551300049
1714858320624002300,4.202002197265625,7.527369976043701,5.92325496673584,0.9050082564353943
1714858320633951700,4.21195166015625,7.618350028991699,6.100425720214844,0.3687070608139038
1714858320643901200,4.221901123046875,7.51779317855835,5.875370979309082,-0.3016694188117981
1714858320653850600,4.2318505859375,7.225700855255127,5.5976433753967285,-1.0534487962722778
1714858320663800000,4.241800048828125,6.756437301635742,5.51624059677124,-1.4700398445129395
1714858320673749500,4.25174951171875,6.598419666290283,5.655104637145996,-1.8148049116134644
1714858320683699200,4.26169921875,6.325480937957764,5.698200225830078,-2.10210919380188
1714858320693648600,4.271648681640625,6.066906929016113,5.60722017288208,-2.0925323963165283
1714858320703598000,4.28159814453125,6.435614109039307,5.698200225830078,-1.800439715385437
1714858320713547500,4.291547607421875,7.479485988616943,5.7987565994262695,-1.216254472732544
1714858320723497000,4.3014970703125,8.221688270568848,5.784391403198242,-0.5315127968788147
1714858320733446400,4.3114462890625,8.585607528686523,5.722142219543457,0.11971008777618408
1714858320743396000,4.32139599609375,8.667010307312012,5.540182590484619,0.507570743560791
1714858320753345500,4.331345458984375,8.489839553833008,5.659893035888672,0.8475474119186401
1714858320763295000,4.341294921875,8.470685958862305,5.540182590484619,1.292868971824646
1714858320773244400,4.351244384765625,8.571242332458496,5.525817394256592,1.3503297567367554
1714858320783193900,4.36119384765625,8.59997272491455,5.602431774139404,0.751779317855835
1714858320793143300,4.371143310546875,8.087613105773926,5.5114521980285645,0.05746084079146385
1714858320803092700,4.3810927734375,6.842628479003906,5.6455278396606445,-0.06703764945268631
1714858320813042400,4.39104248046875,6.162675380706787,5.659893035888672,0.2106897532939911
1714858320822992000,4.400991943359375,6.426037311553955,5.4444146156311035,0.3878606855869293
1714858320832941300,4.41094140625,7.168240070343018,5.4444146156311035,0.21547815203666687
1714858320842890800,4.420890869140625,7.766790390014648,5.386953830718994,-0.07182604819536209
1714858320852840200,4.430840087890625,8.307879447937012,4.975151062011719,-0.28730419278144836
1714858320862789600,4.44078955078125,8.609549522399902,4.697423934936523,-0.507570743560791
1714858320872739300,4.4507392578125,8.710105895996094,4.7405195236206055,-0.6129156351089478
1714858320882688800,4.460688720703125,8.068459510803223,5.037400245666504,-0.4405331015586853
1714858320892638200,4.47063818359375,7.474697589874268,5.310339450836182,0.13407529890537262
1714858320902587600,4.480587646484375,7.010222434997559,5.286397457122803,0.4692635238170624
1714858320912537000,4.490537109375,6.809109687805176,5.329493045806885,0.24420857429504395
1714858320922486500,4.500486572265625,6.751648902893066,5.367800235748291,-0.038307227194309235
1714858320932436000,4.51043603515625,7.264008045196533,5.319916248321533,-0.33039984107017517
1714858320942385700,4.5203857421875,8.20732307434082,5.094861030578613,-0.646434485912323
1714858320952335000,4.530335205078125,9.27034854888916,4.802768707275391,-0.727837324142456
1714858320962284500,4.540284423828125,10.022128105163574,4.692635536193848,-0.5985504388809204
1714858320972234000,4.55023388671875,10.199298858642578,4.668693542480469,-0.24420857429504395
1714858320982183400,4.560183349609375,9.96945571899414,4.76924991607666,0.3878606855869293
1714858320992132900,4.5701328125,9.639056205749512,4.884171485900879,0.8571242094039917
1714858321002082600,4.58008251953125,9.265560150146484,4.884171485900879,0.8954314589500427
1714858321012032000,4.590031982421875,8.676587104797363,4.9799394607543945,0.8092401623725891
1714858321021981400,4.5999814453125,8.346187591552734,4.965574264526367,0.5841852426528931
1714858321031931000,4.609930908203125,8.327033042907715,4.821922302246094,0.22505496442317963
1714858321041880300,4.61988037109375,8.523358345031738,4.7405195236206055,-0.3016694188117981
1714858321051829800,4.629829833984375,8.705317497253418,4.639962673187256,-1.048660397529602
1714858321061779200,4.639779296875,8.777143478393555,4.54419469833374,-1.5705963373184204
1714858321071729000,4.64972900390625,9.050082206726074,4.51067590713501,-1.8818424940109253
1714858321081678300,4.65967822265625,9.428366661071777,4.4292731285095215,-2.0685901641845703
1714858321091627800,4.669627685546875,10.141838073730469,4.400542736053467,-2.1978771686553955
1714858321101577200,4.6795771484375,10.893617630004883,4.3622355461120605,-2.1116859912872314
1714858321111526700,4.689526611328125,10.96544361114502,4.534617900848389,-1.4748282432556152
1714858321121476000,4.69947607421875,10.970232009887695,4.697423934936523,-0.4596867263317108
1714858321131425800,4.70942578125,11.453861236572266,4.879383087158203,0.28730419278144836
1714858321141375200,4.719375244140625,11.875240325927734,4.970362663269043,0.3687070608139038
1714858321151324700,4.72932470703125,11.870451927185059,5.04218864440918,0.2346317619085312
1714858321161274000,4.739274169921875,11.563994407653809,4.8937482833862305,0.090979665517807
1714858321171223600,4.7492236328125,11.128249168395996,4.965574264526367,-0.2298433631658554
1714858321181173000,4.759173095703125,10.44350814819336,5.066130638122559,-0.43095630407333374
1714858321191122400,4.769122314453125,9.883264541625977,5.080495834350586,-0.22505496442317963
1714858321201072000,4.779072021484375,9.375694274902344,5.2672438621521,0.19632454216480255
1714858321211021600,4.789021484375,9.2033109664917,5.5545477867126465,1.1300631761550903
1714858321220971000,4.798970947265625,9.342175483703613,6.114790916442871,1.944091796875
1714858321230920400,4.80892041015625,9.026140213012695,6.282385349273682,2.360682964324951
1714858321240870000,4.818869873046875,8.547300338745117,6.761225700378418,1.7764976024627686
1714858321250819300,4.8288193359375,7.642292022705078,6.742072105407715,0.8858546018600464
1714858321260768800,4.838768798828125,7.15387487411499,6.7708024978637695,0.35434186458587646
1714858321270718500,4.848718505859375,7.091625213623047,6.8378400802612305,0.15322890877723694
1714858321280668000,4.85866796875,7.445967197418213,6.780379295349121,0.33518823981285095
1714858321290617300,4.868617431640625,8.14028549194336,6.378153324127197,0.545877993106842
1714858321300566800,4.87856689453125,8.676587104797363,6.258443355560303,0.31603461503982544
1714858321310516200,4.88851611328125,8.576030731201172,6.588842868804932,0.12449848651885986
1714858321320465700,4.898465576171875,8.135497093200684,6.210559368133545,-0.3878606855869293
1714858321330415000,4.9084150390625,7.843404769897461,6.502651691436768,0.11013327538967133
1714858321340364500,4.918364501953125,8.245630264282227,6.445190906524658,0.5841852426528931
1714858321350314000,4.92831396484375,8.293514251708984,6.311115741729736,0.3687070608139038
1714858321360263400,4.938263427734375,8.02536392211914,6.1770405769348145,-0.090979665517807
1714858321370212900,4.948212890625,8.121131896972656,6.028599739074707,-0.5267243981361389
1714858321380162300,4.958162353515625,8.465897560119629,5.631162166595459,-0.40701428055763245
1714858321390111500,4.968111572265625,8.753201484680176,5.664681434631348,-0.6416460275650024
1714858321400061000,4.97806103515625,9.294290542602539,5.473145008087158,-0.8619126081466675
1714858321410010400,4.98801025390625,9.983820915222168,5.477933406829834,-1.1635819673538208
1714858321419959800,4.997959716796875,11.094730377197266,5.147533416748047,-2.006340980529785
1714858321429909200,5.0079091796875,11.865663528442383,5.157110691070557,-1.5275006294250488
1714858321439858700,5.017858642578125,11.841721534729004,5.410895824432373,-0.4836287498474121
1714858321449808100,5.02780810546875,11.30063247680664,5.363011837005615,-0.1867477297782898
1714858321459757600,5.037757568359375,10.251971244812012,5.540182590484619,-0.4165911078453064
1714858321469707000,5.04770703125,9.107542991638184,5.674258232116699,-0.569819986820221
1714858321479656400,5.057656494140625,8.17380428314209,5.386953830718994,-0.6991068720817566
1714858321489606000,5.06760595703125,7.4986395835876465,5.3342814445495605,-0.7134721279144287
1714858321499555300,5.077555419921875,6.311115741729736,6.04775333404541,-0.019153613597154617
1714858321509504800,5.0875048828125,6.540958881378174,5.473145008087158,0.10534487664699554
1714858321519454200,5.0974541015625,7.268796443939209,5.147533416748047,-0.47405192255973816
1714858321529403600,5.107403564453125,7.398083209991455,5.224148273468018,-1.4748282432556152
1714858321539353000,5.11735302734375,7.690176010131836,5.420472621917725,-1.656787633895874
1714858321549302500,5.127302490234375,8.283937454223633,5.003881454467773,-1.6519991159439087
1714858321559252000,5.137251953125,9.083600997924805,4.917690277099609,-1.5179238319396973
1714858321569201400,5.147201416015625,9.533711433410645,4.960785865783691,-1.623268723487854
1714858321579150600,5.157150634765625,9.825803756713867,4.831499099731445,-2.006340980529785
1714858321589100000,5.16710009765625,9.926360130310059,4.616020679473877,-2.4133553504943848
1714858321599049500,5.177049560546875,9.643844604492188,4.553771495819092,-2.935291290283203
1714858321608999000,5.1869990234375,8.987833023071289,4.654327869415283,-3.471592426300049
1714858321618948400,5.1969482421875,7.953537940979004,4.73573112487793,-3.337517261505127
1714858321628897800,5.206897705078125,7.46033239364624,4.778826713562012,-2.2840683460235596
1714858321638847200,5.21684716796875,7.589619159698486,5.018246650695801,-0.9528923034667969
1714858321648796700,5.226796630859375,8.49941635131836,5.238513469696045,0.272938996553421
1714858321658746000,5.23674609375,9.308655738830566,5.339069843292236,0.5985504388809204
1714858321668695600,5.246695556640625,9.490615844726562,5.319916248321533,-0.004788403399288654
1714858321678645000,5.25664501953125,9.011775016784668,5.190629482269287,-0.9097966551780701
1714858321688594400,5.266594482421875,8.293514251708984,4.9799394607543945,-1.7334020137786865
1714858321698543900,5.2765439453125,7.55131196975708,4.750096321105957,-2.4372973442077637
1714858321708493300,5.286493408203125,7.105990409851074,4.654327869415283,-3.0837318897247314
1714858321718442800,5.29644287109375,7.005434036254883,4.587290287017822,-3.6152446269989014
1714858321728392200,5.30639208984375,7.287950038909912,4.67827033996582,-3.428496837615967
1714858321738342000,5.316341796875,8.671798706054688,4.845864295959473,-1.6711528301239014
1714858321748291300,5.326291259765625,10.615890502929688,4.908113479614258,0.6416460275650024
1714858321758240800,5.33624072265625,11.927912712097168,5.123591423034668,1.8626888990402222
1714858321768190200,5.346190185546875,12.100295066833496,5.305551052093506,1.7286136150360107
1714858321778139600,5.3561396484375,11.267112731933594,5.070919036865234,0.7374141216278076
1714858321788089000,5.366089111328125,9.8784761428833,4.802768707275391,-0.6320692300796509
1714858321798038500,5.37603857421875,8.619126319885254,4.750096321105957,-1.8579005002975464
1714858321807988200,5.38598828125,7.924807548522949,4.721365928649902,-2.5522189140319824
1714858321817937700,5.395937744140625,8.034940719604492,4.898536682128906,-2.3942017555236816
1714858321827887000,5.40588720703125,8.44195556640625,5.219359874725342,-1.656787633895874
1714858321837836500,5.41583642578125,8.643068313598633,5.2911858558654785,-0.689530074596405
1714858321847786000,5.425785888671875,8.580819129943848,5.315127849578857,-0.2537853717803955
1714858321857735400,5.4357353515625,8.49941635131836,5.4013190269470215,-0.3878606855869293
1714858321867684900,5.445684814453125,8.33182144165039,5.410895824432373,-0.507570743560791
1714858321877634600,5.455634521484375,8.192957878112793,5.367800235748291,-0.3687070608139038
1714858321887584000,5.465583984375,8.04930591583252,5.329493045806885,-0.24420857429504395
1714858321897533400,5.475533447265625,7.886500358581543,5.228936672210693,-0.45010992884635925
1714858321907483000,5.48548291015625,7.814674377441406,5.085284233093262,-0.5889736413955688
1714858321917432300,5.495432373046875,7.996633529663086,5.027823448181152,-0.6847416758537292
1714858321927381800,5.5053818359375,8.288725852966309,5.070919036865234,-0.7613561153411865
1714858321937331500,5.51533154296875,8.56645393371582,5.070919036865234,-0.689530074596405
1714858321947281000,5.525281005859375,8.853757858276367,5.080495834350586,-0.4405331015586853
1714858321957230300,5.535230224609375,8.93037223815918,5.118803024291992,-0.090979665517807
1714858321967179800,5.5451796875,8.925583839416504,5.094861030578613,0.08619125932455063
1714858321977129200,5.555129150390625,8.87291145324707,5.0900726318359375,0.14844051003456116
1714858321987078700,5.56507861328125,8.757989883422852,5.147533416748047,0.2106897532939911
1714858321997028000,5.575028076171875,8.619126319885254,5.061342239379883,0.033518824726343155
1714858322006977800,5.584977783203125,8.422801971435547,5.080495834350586,-0.06224924325942993
1714858322016927200,5.59492724609375,8.097189903259277,5.080495834350586,-0.19632454216480255
1714858322026876700,5.604876708984375,7.795520782470703,4.965574264526367,-0.4405331015586853
1714858322036826000,5.614826171875,7.7428483963012695,5.07570743560791,-0.4884171485900879
1714858322046775600,5.624775634765625,7.920019149780273,5.281609058380127,-0.11013327538967133
1714858322056725000,5.63472509765625,8.26478385925293,5.310339450836182,0.33997663855552673
1714858322066674700,5.6446748046875,8.652645111083984,5.243301868438721,0.7134721279144287
1714858322076624100,5.6546240234375,8.954314231872559,5.20978307723999,0.8236053586006165
1714858322086573600,5.664573486328125,9.165003776550293,5.281609058380127,0.933738648891449
1714858322096523000,5.67452294921875,9.11233139038086,5.2672438621521,0.9528923034667969
1714858322106472400,5.684472412109375,8.801085472106934,5.348646640777588,0.751779317855835
1714858322116422000,5.694421875,8.585607528686523,5.310339450836182,0.6320692300796509
1714858322126371300,5.704371337890625,8.336610794067383,5.147533416748047,0.4884171485900879
1714858322136321000,5.714321044921875,8.154650688171387,5.013458251953125,0.181959331035614
1714858322146270500,5.7242705078125,7.795520782470703,4.912901878356934,-0.2059013396501541
1714858322156220000,5.734219970703125,7.738059997558594,5.003881454467773,-0.20111294090747833
1714858322166169300,5.74416943359375,7.484274387359619,5.018246650695801,0.13407529890537262
1714858322176118800,5.754118896484375,7.216124057769775,5.166687488555908,0.047884032130241394
1714858322186068200,5.764068115234375,7.062894821166992,5.324704647064209,0.06703764945268631
1714858322196018000,5.774017822265625,7.15387487411499,5.228936672210693,0.20111294090747833
1714858322205967000,5.783967041015625,7.407660007476807,5.152322292327881,0.3878606855869293
1714858322215916500,5.79391650390625,7.805097579956055,5.0900726318359375,0.4692635238170624
1714858322225866000,5.803865966796875,7.99184513092041,5.018246650695801,0.3878606855869293
1714858322235815400,5.8138154296875,8.101978302001953,5.0900726318359375,0.26336219906806946
1714858322245764900,5.823764892578125,8.106766700744629,5.2911858558654785,0.23942017555236816
1714858322255714300,5.83371435546875,7.843404769897461,5.363011837005615,0.3878606855869293
1714858322265663700,5.843663818359375,7.86734676361084,5.348646640777588,0.5171475410461426
1714858322275613200,5.85361328125,7.824251174926758,5.137956619262695,0.3208230137825012
1714858322285562600,5.863562744140625,7.996633529663086,5.056553840637207,0.22505496442317963
1714858322295512000,5.873511962890625,8.470685958862305,5.1331682205200195,0.40222588181495667
1714858322305461500,5.88346142578125,9.342175483703613,5.070919036865234,0.727837324142456
1714858322315411000,5.893410888671875,10.02691650390625,4.711789131164551,0.6512228846549988
1714858322325360400,5.9033603515625,9.998186111450195,4.529829502105713,0.07661445438861847
1714858322335309800,5.913309814453125,9.639056205749512,4.6734819412231445,-0.363918662071228
1714858322345259300,5.92325927734375,9.136273384094238,4.711789131164551,-0.40222588181495667
1714858322355208700,5.933208740234375,8.801085472106934,4.592078685760498,-0.2346317619085312
1714858322365158100,5.943158203125,8.638279914855957,4.496310710906982,-0.15801730751991272
1714858322375107600,5.953107666015625,8.710105895996094,4.299986362457275,-0.33518823981285095
1714858322385057000,5.96305712890625,8.939949035644531,3.936067581176758,-0.8523358106613159
1714858322395006500,5.97300634765625,9.332598686218262,3.9647979736328125,-1.139639973640442
1714858322404955600,5.98295556640625,10.319009780883789,4.20421838760376,-0.29209262132644653
1714858322414905000,5.992905029296875,11.003750801086426,3.8977603912353516,0.6177040338516235
1714858322424854500,6.0028544921875,11.085153579711914,3.8977603912353516,0.8044517636299133
1714858322434804000,6.012803955078125,10.51054573059082,4.122815132141113,0.2106897532939911
1714858322444753400,6.02275341796875,9.394847869873047,3.931279182434082,-0.07182604819536209
1714858322454702800,6.032702880859375,8.585607528686523,3.8977603912353516,-0.22026655077934265
1714858322464652300,6.04265234375,8.121131896972656,3.931279182434082,-0.4692635238170624
1714858322474601700,6.052601806640625,7.350199222564697,3.797203779220581,-0.9720458984375
1714858322484551200,6.06255126953125,6.641515731811523,3.60566782951355,-1.5753847360610962
1714858322494500600,6.07250048828125,7.201758861541748,3.4763808250427246,-1.1779472827911377
1714858322504450000,6.082449951171875,8.53293514251709,3.4572272300720215,-0.40222588181495667
1714858322514399500,6.0923994140625,9.586383819580078,3.294421434402466,0.11971008777618408
1714858322524349000,6.102348876953125,10.347740173339844,3.093308687210083,0.22026655077934265
1714858322534298400,6.11229833984375,10.860098838806152,2.8778305053710938,-0.014365210197865963
1714858322544247800,6.122247802734375,11.099518775939941,2.806004285812378,-0.40701428055763245
1714858322554197200,6.132197265625,10.773907661437988,2.671929121017456,-0.7805097699165344
1714858322564146700,6.142146728515625,10.51054573059082,2.557007312774658,-0.8188169598579407
1714858322574096100,6.15209619140625,11.061211585998535,2.5905263423919678,-0.569819986820221
1714858322584045600,6.162045654296875,11.410765647888184,2.580949544906616,-0.6272808313369751
1714858322593995000,6.1719951171875,11.396400451660156,2.470816135406494,-0.8140285611152649
1714858322603944200,6.181944091796875,11.69806957244873,2.3989901542663574,-0.8475474119186401
1714858322613893600,6.1918935546875,12.148179054260254,2.408566951751709,-0.8188169598579407
1714858322623843000,6.201843017578125,11.951854705810547,2.3942017555236816,-0.8762778043746948
1714858322633792500,6.21179248046875,11.113883972167969,2.542642116546631,-1.278503656387329
1714858322643742000,6.221741943359375,10.156203269958496,2.6240451335906982,-1.3503297567367554
1714858322653691400,6.23169140625,9.773131370544434,2.652775526046753,-1.0103530883789062
1714858322663640800,6.241640869140625,10.189722061157227,2.7437551021575928,-0.6703764796257019
1714858322673590300,6.25159033203125,10.740388870239258,2.8443117141723633,-0.7086837291717529
1714858322683539700,6.261539794921875,10.94150161743164,2.82515811920166,-0.7134721279144287
1714858322693489200,6.2714892578125,10.515334129333496,2.7293899059295654,-0.8140285611152649
1714858322703438600,6.2814384765625,9.821015357971191,2.5905263423919678,-0.9624691009521484
1714858322713388000,6.291387939453125,9.437943458557129,2.6862943172454834,-1.1204863786697388
1714858322723337500,6.30133740234375,9.552865028381348,2.738966703414917,-1.2258312702178955
1714858322733287000,6.311286865234375,9.86889934539795,2.7772738933563232,-0.9002198576927185
1714858322743236400,6.321236328125,10.400412559509277,2.896984100341797,-0.4213795065879822
1714858322753185800,6.331185791015625,10.44350814819336,2.9927520751953125,-0.507570743560791
1714858322763135200,6.34113525390625,10.146626472473145,2.9735984802246094,-1.0869675874710083
1714858322773084700,6.351084716796875,9.75397777557373,3.045424461364746,-1.4413094520568848
1714858322783034000,6.3610341796875,9.81143856048584,3.1699230670928955,-1.4700398445129395
1714858322792983600,6.370983642578125,10.251971244812012,3.1938650608062744,-1.216254472732544
1714858322802933000,6.38093310546875,10.6925048828125,3.2417490482330322,-0.8427590131759644
1714858322812882700,6.390882568359375,11.109095573425293,3.3231520652770996,-0.8044517636299133
1714858322822832000,6.40083203125,11.386823654174805,3.4811692237854004,-0.45489832758903503
1714858322832781600,6.410781494140625,11.161767959594727,3.471592426300049,0.05746084079146385
1714858322842731000,6.42073095703125,10.261548042297363,3.3710360527038574,0.31124621629714966
1714858322852680400,6.430680419921875,9.169792175292969,3.691859006881714,0.569819986820221
1714858322862630000,6.4406298828125,8.456320762634277,4.304774761199951,0.4596867263317108
1714858322872579600,6.45057958984375,7.55131196975708,4.5154643058776855,0.1149216815829277
1714858322882529000,6.460529052734375,6.8043212890625,4.5154643058776855,-0.6655880808830261
1714858322892478500,6.470478515625,6.598419666290283,4.726154327392578,-1.8722656965255737
1714858322902428000,6.480427978515625,6.636727333068848,5.04218864440918,-2.628833532333374
1714858322912377300,6.49037744140625,6.900089263916016,5.4252610206604,-2.1356279850006104
1714858322922326800,6.500326904296875,7.8098859786987305,5.870582580566406,-0.7182605266571045
1714858322932276200,6.510276123046875,9.074024200439453,5.913678169250488,0.5123591423034668
1714858322942226000,6.520225830078125,9.62947940826416,5.367800235748291,0.569819986820221
1714858322952175400,6.53017529296875,9.648633003234863,5.051765441894531,-0.028730420395731926
1714858322962124800,6.540124755859375,9.615114212036133,5.066130638122559,-1.2976573705673218
1714858322972074200,6.55007421875,8.815450668334961,5.525817394256592,-1.8722656965255737
1714858322982023700,6.560023681640625,7.747636795043945,5.7556610107421875,-1.6376339197158813
1714858322991973000,6.56997314453125,6.67982292175293,5.578489780426025,-1.5610195398330688
1714858323001922800,6.5799228515625,5.971138954162598,5.386953830718994,-1.9776105880737305
1714858323011872300,6.589872314453125,5.822698593139648,5.942408561706543,-1.7190368175506592
1714858323021821700,6.59982177734375,6.45476770401001,6.497863292694092,-0.3208230137825012
1714858323031771100,6.609771240234375,7.086836814880371,6.402095317840576,1.1204863786697388
1714858323041720600,6.619720458984375,7.513004779815674,6.191405773162842,1.7525556087493896
1714858323051670000,6.629669921875,7.536946773529053,6.0190229415893555,1.455674648284912
1714858323061619500,6.639619384765625,7.4316020011901855,6.157886981964111,1.316810965538025
1714858323071569200,6.649569091796875,7.4986395835876465,6.36378812789917,1.235408067703247
1714858323081518600,6.6595185546875,7.2783732414245605,6.36378812789917,0.7757213711738586
1714858323091468000,6.669468017578125,6.387730121612549,6.210559368133545,0.4884171485900879
1714858323101417500,6.67941748046875,6.133944988250732,6.1770405769348145,0.7374141216278076
1714858323111367000,6.689366943359375,6.775590896606445,5.765237808227539,1.2306196689605713
1714858323121316400,6.69931640625,7.943961143493652,5.329493045806885,1.1875240802764893
1714858323131266000,6.70926611328125,9.394847869873047,5.166687488555908,0.20111294090747833
1714858323141215500,6.719215576171875,9.672574996948242,5.17626428604126,0.11971008777618408
1714858323151165000,6.7291650390625,9.634267807006836,4.8267107009887695,-0.033518824726343155
1714858323161114400,6.7391142578125,9.485827445983887,4.563348293304443,0.10534487664699554
1714858323171063800,6.749063720703125,10.041281700134277,4.199429988861084,-0.5841852426528931
1714858323181013200,6.75901318359375,10.903194427490234,4.031835556030273,-1.278503656387329
1714858323190962700,6.768962646484375,11.343728065490723,3.9169139862060547,-1.7764976024627686
1714858323200912100,6.778912109375,10.903194427490234,3.907337188720703,-1.9536685943603516
1714858323210861600,6.788861572265625,10.649409294128418,4.098873138427734,-1.867477297782898
1714858323220810800,6.798810791015625,10.54406452178955,3.8594532012939453,-0.9289502501487732
1714858323230760200,6.80876025390625,11.003750801086426,3.7253777980804443,-0.14844051003456116
1714858323240709600,6.818709716796875,11.094730377197266,3.773261785507202,-0.033518824726343155
1714858323250659000,6.8286591796875,10.826580047607422,3.8307228088378906,0.2585737705230713
1714858323260608500,6.8386083984375,10.524910926818848,3.8546648025512695,0.5746083855628967
1714858323270558000,6.848557861328125,10.649409294128418,3.9408559799194336,0.5506663918495178
1714858323280507400,6.85850732421875,10.807426452636719,4.017470359802246,0.28730419278144836
1714858323290456800,6.868456787109375,10.706870079040527,3.907337188720703,-0.2059013396501541
1714858323300406300,6.87840625,10.764330863952637,3.8594532012939453,-0.6607996821403503
1714858323310355700,6.888355712890625,10.41956615447998,3.7445313930511475,-1.3311761617660522
1714858323320305200,6.89830517578125,9.691728591918945,3.5482068061828613,-1.723825216293335
1714858323330254600,6.908254638671875,9.188945770263672,3.35667085647583,-1.9584569931030273
1714858323340204000,6.9182041015625,9.040505409240723,3.3423056602478027,-2.22660756111145
1714858323350153500,6.928153564453125,8.987833023071289,3.471592426300049,-2.1739351749420166
1714858323360103000,6.93810302734375,9.02135181427002,3.4763808250427246,-1.680729627609253
1714858323370052400,6.94805224609375,9.241618156433105,3.375824451446533,-0.7709329724311829
1714858323380001800,6.958001708984375,9.77791976928711,3.5051112174987793,0.05746084079146385
1714858323389951200,6.967951171875,10.414777755737305,3.840299606323242,-0.11971008777618408
1714858323399900700,6.977900634765625,10.78348445892334,4.137180328369141,-0.7086837291717529
1714858323409850000,6.98785009765625,10.769119262695312,4.199429988861084,-0.9193734526634216
1714858323419799300,6.99779931640625,10.295066833496094,4.031835556030273,-0.569819986820221
1714858323429748700,7.007748779296875,9.706093788146973,3.912125587463379,-0.5219359993934631
1714858323439698200,7.0176982421875,9.02135181427002,4.089296340942383,-1.0103530883789062
1714858323449647600,7.027647705078125,8.360552787780762,4.271255970001221,-1.6089035272598267
1714858323459597000,7.03759716796875,7.642292022705078,4.4292731285095215,-2.006340980529785
1714858323469546500,7.04754638671875,7.043741226196289,4.845864295959473,-1.8052281141281128
1714858323479496000,7.057495849609375,6.957550048828125,5.477933406829834,-0.8906430602073669
1714858323489445400,7.0674453125,7.613561630249023,5.92325496673584,0.181959331035614
1714858323499394800,7.077394775390625,8.26478385925293,5.971138954162598,0.7038952708244324
1714858323509344300,7.08734423828125,8.236053466796875,5.722142219543457,0.6751648783683777
1714858323519293700,7.097293701171875,7.680599212646484,5.492298603057861,0.26336219906806946
1714858323529243100,7.1072431640625,7.168240070343018,5.540182590484619,-0.2106897532939911
1714858323539192600,7.117192626953125,7.134721279144287,5.774814605712891,-0.569819986820221
1714858323549142000,7.12714208984375,7.350199222564697,6.086060523986816,-0.5985504388809204
1714858323559091500,7.137091552734375,7.393294811248779,6.215347766876221,-0.38307225704193115
1714858323569041000,7.147041015625,7.216124057769775,6.0621185302734375,-0.22505496442317963
1714858323578990300,7.156990234375,6.904877662658691,5.7125654220581055,-0.3974374830722809
1714858323588939800,7.166939697265625,6.536170482635498,5.717353820800781,-0.8188169598579407
1714858323598889200,7.17688916015625,6.052541732788086,5.779603004455566,-1.3120225667953491
1714858323608838700,7.186838623046875,5.635950565338135,5.4875102043151855,-2.054224967956543
1714858323618787800,7.196787841796875,5.621585369110107,5.30076265335083,-2.6575639247894287
1714858323628737300,7.2067373046875,5.884947776794434,5.530605792999268,-2.451662540435791
1714858323638686700,7.216686767578125,6.406883716583252,5.870582580566406,-1.3407529592514038
1714858323648636200,7.22663623046875,7.216124057769775,6.057330131530762,0.5793967843055725
1714858323658585600,7.236585693359375,8.054094314575195,6.234501361846924,2.964021682739258
1714858323668535000,7.24653515625,8.667010307312012,6.191405773162842,4.2329487800598145
1714858323678484500,7.256484375,9.399636268615723,6.071695327758789,4.055777549743652
1714858323688434000,7.266433837890625,9.907206535339355,5.990292549133301,3.2609026432037354
1714858323698383400,7.27638330078125,9.782708168029785,5.631162166595459,2.3271639347076416
1714858323708332800,7.286332763671875,9.385271072387695,5.070919036865234,1.139639973640442
1714858323718282200,7.2962822265625,8.801085472106934,4.745307922363281,0.19632454216480255
1714858323728231700,7.306231689453125,8.542511940002441,4.5825018882751465,-0.42616790533065796
1714858323738181000,7.31618115234375,8.695740699768066,4.4723687171936035,-0.8667010068893433
1714858323748130600,7.326130615234375,9.184157371520996,4.501099109649658,-0.8810662031173706
1714858323758080000,7.336080078125,9.979032516479492,4.424484729766846,-0.4644751250743866
1714858323768029400,7.346029541015625,10.812214851379395,4.185064792633057,0.10534487664699554
1714858323777979000,7.355978759765625,11.425130844116211,4.108449935913086,0.7805097699165344
1714858323787928300,7.36592822265625,11.51611042022705,4.089296340942383,1.2689268589019775
1714858323797877800,7.375877685546875,11.094730377197266,3.9169139862060547,1.139639973640442
1714858323807827200,7.3858271484375,10.362105369567871,3.936067581176758,0.7134721279144287
1714858323817776400,7.3957763671875,10.02691650390625,4.01268196105957,0.15322890877723694
1714858323827725800,7.405725830078125,9.911994934082031,3.8067808151245117,-0.4644751250743866
1714858323837675300,7.41567529296875,9.854534149169922,3.620033025741577,-0.8092401623725891
1714858323847624700,7.425624755859375,9.950302124023438,3.552995204925537,-0.9816226959228516
1714858323857574100,7.43557421875,10.232817649841309,3.600879430770874,-1.0965443849563599
1714858323867523600,7.445523681640625,10.295066833496094,3.5673606395721436,-1.1348515748977661
1714858323877473000,7.45547314453125,9.840168952941895,3.0789434909820557,-1.3311761617660522
1714858323887422500,7.46542236328125,9.442731857299805,2.9735984802246094,-1.4460978507995605
1714858323897372000,7.475371826171875,9.519346237182617,3.3710360527038574,-1.5753847360610962
1714858323907321300,7.4853212890625,10.113107681274414,3.73016619682312,-1.53707754611969
1714858323917270800,7.495270751953125,11.12346076965332,3.5625722408294678,-1.3982137441635132
1714858323927220200,7.50522021484375,11.439496040344238,3.050212860107422,-1.192312479019165
1714858323937169700,7.515169677734375,10.759542465209961,2.671929121017456,-1.53707754611969
1714858323947119000,7.525119140625,9.696516990661621,2.8347349166870117,-2.1308395862579346
1714858323957068500,7.535068603515625,8.983044624328613,3.155557870864868,-2.537853717803955
1714858323967018000,7.54501806640625,8.662221908569336,3.4093432426452637,-2.542642116546631
1714858323976967400,7.554967529296875,8.729259490966797,3.5625722408294678,-2.585737943649292
1714858323986916900,7.564916748046875,8.767566680908203,3.3854012489318848,-2.691082715988159
1714858323996866300,7.5748662109375,8.322244644165039,3.222595453262329,-2.4899697303771973
1714858324006816000,7.58481591796875,7.90086555480957,3.361459255218506,-2.432508945465088
1714858324016765400,7.594765380859375,7.843404769897461,3.801992416381836,-2.5043349266052246
1714858324026715000,7.60471484375,8.034940719604492,4.213795185089111,-2.2026655673980713
1714858324036664300,7.614664306640625,8.274360656738281,4.467580318450928,-1.656787633895874
1714858324046613800,7.62461376953125,8.537723541259766,4.54419469833374,-1.3455413579940796
1714858324056563200,7.634563232421875,8.882488250732422,4.400542736053467,-1.3024457693099976
1714858324066512600,7.6445126953125,8.695740699768066,3.9695863723754883,-1.7094600200653076
1714858324076462300,7.65446240234375,8.154650688171387,3.6583402156829834,-2.298433542251587
1714858324086411800,7.664411865234375,7.589619159698486,3.7636849880218506,-2.853888511657715
1714858324096361200,7.674361328125,7.1490864753723145,3.8977603912353516,-3.375824451446533
1714858324106310700,7.684310546875,7.043741226196289,3.892971992492676,-3.5051112174987793
1714858324116260000,7.694260009765625,7.383718013763428,3.8786067962646484,-3.222595453262329
1714858324126209500,7.70420947265625,8.29830265045166,3.7828385829925537,-3.0310592651367188
1714858324136159200,7.7141591796875,9.38048267364502,3.5673606395721436,-3.0597896575927734
1714858324146108700,7.724108642578125,9.86889934539795,3.404554843902588,-3.0597896575927734
1714858324156058000,7.73405810546875,9.911994934082031,3.4093432426452637,-3.0166940689086914
1714858324166007600,7.744007568359375,9.86889934539795,3.485957622528076,-2.9544448852539062
1714858324175957000,7.75395703125,9.830592155456543,3.4141316413879395,-2.9688100814819336
1714858324185906400,7.763906494140625,9.634267807006836,3.337517261505127,-2.9879636764526367
1714858324195856000,7.77385595703125,9.150638580322266,3.2609026432037354,-3.179499864578247
1714858324205805600,7.7838056640625,9.006986618041992,3.203441858291626,-3.5051112174987793
1714858324215755000,7.793755126953125,9.696516990661621,3.19865345954895,-3.620033025741577
1714858324225704400,7.803704345703125,10.486603736877441,3.0885202884674072,-3.3854012489318848
1714858324235654000,7.81365380859375,10.778696060180664,2.920926094055176,-3.069366693496704
1714858324245603300,7.823603271484375,10.864887237548828,2.9448680877685547,-2.8826189041137695
1714858324255552800,7.833552734375,10.826580047607422,3.1651346683502197,-2.849100112915039
1714858324265502200,7.843502197265625,10.706870079040527,3.28963303565979,-2.920926094055176
1714858324275452000,7.853451904296875,10.60152530670166,3.3470940589904785,-2.978386878967285
1714858324285401300,7.8634013671875,10.606313705444336,3.318363666534424,-3.19865345954895
1714858324295350800,7.873350830078125,10.563218116760254,3.3518824577331543,-3.380612850189209
1714858324305300200,7.88330029296875,10.35252857208252,3.581725835800171,-3.3231520652770996
1714858324315249700,7.893249755859375,10.074800491333008,3.7014358043670654,-3.141192674636841
1714858324325199000,7.90319921875,9.950302124023438,3.797203779220581,-2.75812029838562
1714858324335148500,7.9131484375,9.825803756713867,3.9408559799194336,-2.365471363067627
1714858324345097700,7.92309765625,9.619902610778809,4.060565948486328,-2.0446481704711914
1714858324355047200,7.933047119140625,9.141061782836914,4.2090067863464355,-1.7286136150360107
1714858324364996600,7.94299658203125,8.638279914855957,4.299986362457275,-1.5610195398330688
1714858324374946000,7.952946044921875,8.355764389038086,4.376600742340088,-1.599326729774475
1714858324384895500,7.9628955078125,8.317456245422363,4.467580318450928,-1.7908629179000854
1714858324394845000,7.972844970703125,8.456320762634277,4.534617900848389,-1.8962076902389526
1714858324404794400,7.98279443359375,8.446743965148926,4.577713489532471,-1.680729627609253
1714858324414743800,7.992743896484375,8.08282470703125,4.654327869415283,-1.2401964664459229
1714858324424693200,8.002693359375,7.709329605102539,4.879383087158203,-0.790086567401886
1714858324434642700,8.012642578125,7.556100368499756,5.161899089813232,-0.5793967843055725
1714858324444592000,8.022592041015624,7.843404769897461,5.339069843292236,-0.5027823448181152
1714858324454541600,8.03254150390625,8.322244644165039,5.343858242034912,-0.3208230137825012
1714858324464491000,8.042490966796874,8.695740699768066,5.1810526847839355,-0.24899697303771973
1714858324474440400,8.0524404296875,8.877699851989746,5.123591423034668,-0.35913026332855225
1714858324484390000,8.062389892578125,8.959102630615234,5.17626428604126,-0.4165911078453064
1714858324494339300,8.07233935546875,8.877699851989746,5.185841083526611,-0.507570743560791
1714858324504288800,8.082288818359375,8.719682693481445,5.171475887298584,-0.47405192255973816
1714858324514238200,8.09223828125,8.647856712341309,5.037400245666504,-0.5746083855628967
1714858324524187600,8.102187744140625,8.652645111083984,4.8602294921875,-0.7709329724311829
1714858324534137000,8.11213720703125,8.470685958862305,4.702212333679199,-1.039083480834961
1714858324544086300,8.122086181640626,8.398859977722168,4.639962673187256,-1.3215993642807007
1714858324554035700,8.13203564453125,8.269572257995605,4.683058738708496,-1.5083470344543457
1714858324563985200,8.141985107421876,7.95832633972168,4.716577529907227,-1.6184803247451782
1714858324573934600,8.1519345703125,7.469909191131592,4.908113479614258,-1.4221558570861816
1714858324583884000,8.161884033203124,7.216124057769775,5.070919036865234,-1.1683704853057861
1714858324593833500,8.17183349609375,7.043741226196289,5.061342239379883,-0.9720458984375
1714858324603783000,8.181782958984375,6.8043212890625,5.027823448181152,-0.7469909191131592
1714858324613732400,8.191732421875,6.335057735443115,4.9799394607543945,-0.6991068720817566
1714858324623681800,8.201681884765625,6.052541732788086,5.061342239379883,-0.8044517636299133
1714858324633631200,8.21163134765625,6.335057735443115,5.276820659637451,-0.8571242094039917
1714858324643580700,8.22158056640625,6.900089263916016,5.602431774139404,-0.4884171485900879
1714858324653530000,8.231530029296875,7.177816867828369,5.7556610107421875,0.3447650372982025
1714858324663479600,8.2414794921875,7.053318023681641,5.453991413116455,0.9576807022094727
1714858324673429000,8.251428955078126,6.746860504150391,4.802768707275391,0.871489405632019
1714858324683378400,8.26137841796875,6.1052141189575195,4.299986362457275,0.6224924325942993
1714858324693328000,8.271327880859374,5.5545477867126465,3.8786067962646484,0.004788403399288654
1714858324703277300,8.28127734375,6.114790916442871,3.294421434402466,-1.9823989868164062
1714858324713226800,8.291226806640625,7.412448406219482,3.624821424484253,-3.998316764831543
1714858324723176200,8.30117626953125,8.154650688171387,3.5865142345428467,-4.299986362457275
1714858324733125600,8.311125732421875,8.33182144165039,2.5713725090026855,-0.5171475410461426
1714858324743074800,8.32107470703125,9.557653427124023,1.1827356815338135,4.189853191375732
1714858324753024300,8.331024169921875,12.559982299804688,1.2832920551300049,5.39174222946167
1714858324762973700,8.3409736328125,14.566323280334473,2.279279947280884,3.691859006881714
1714858324772923100,8.350923095703125,15.284584045410156,2.298433542251587,2.6240451335906982
1714858324782872600,8.36087255859375,15.543157577514648,1.8722656965255737,2.231395959854126
1714858324792822000,8.370822021484376,15.346833229064941,1.3551181554794312,1.6759412288665771
1714858324802771500,8.380771484375,14.824896812438965,1.0199298858642578,0.7230489253997803
1714858324812721000,8.390720947265624,13.771448135375977,1.0342950820922852,-0.181959331035614
1714858324822670300,8.40067041015625,12.660538673400879,1.6328455209732056,-0.033518824726343155
1714858324832619800,8.410619873046874,11.094730377197266,1.479616641998291,0.090979665517807
1714858324842569200,8.4205693359375,9.653421401977539,1.2737152576446533,0.4405331015586853
1714858324852518700,8.4305185546875,9.318233489990234,1.4460978507995605,0.9816226959228516
1714858324862468000,8.440468017578125,10.319009780883789,1.723825216293335,1.699883222579956
1714858324872417500,8.45041748046875,12.38759994506836,1.920149803161621,2.1499931812286377
1714858324882367000,8.460366943359375,14.0635404586792,2.03507137298584,2.2218191623687744
1714858324892316400,8.47031640625,13.967772483825684,1.9584569931030273,2.145204782485962
1714858324902265900,8.480265869140625,12.555193901062012,1.5466543436050415,1.9393033981323242
1714858324912215300,8.49021533203125,11.669339179992676,0.933738648891449,1.4269442558288574
1714858324922164700,8.500164794921876,11.8225679397583,0.8954314589500427,0.7709329724311829
1714858324932114200,8.5101142578125,11.233593940734863,0.9289502501487732,0.4644751250743866
1714858324942063400,8.5200634765625,10.735600471496582,0.7469909191131592,-0.13407529890537262
1714858324952012800,8.5300126953125,11.1474027633667,0.3878606855869293,-1.0199298858642578
1714858324961962200,8.539962158203124,12.536040306091309,0.07661445438861847,-1.6615760326385498
1714858324971911700,8.54991162109375,13.771448135375977,0.028730420395731926,-1.8722656965255737
1714858324981861000,8.559861083984375,14.460978507995605,-0.11013327538967133,-2.2026655673980713
1714858324991810600,8.569810546875,13.436260223388672,-0.3495534360408783,-2.6862943172454834
1714858325001760000,8.579760009765625,10.47702693939209,-0.2825157940387726,-3.064578056335449
1714858325011709400,8.58970947265625,8.93037223815918,0.3687070608139038,-3.4189200401306152
1714858325021659000,8.599658935546875,8.154650688171387,1.015141487121582,-4.146757125854492
1714858325031608300,8.6096083984375,8.11634349822998,1.50355863571167,-4.558559894561768
1714858325041557800,8.619557861328126,9.294290542602539,2.2218191623687744,-4.606443881988525
1714858325051507200,8.629507080078126,10.295066833496094,2.47560453414917,-4.4532151222229
1714858325061456600,8.63945654296875,10.515334129333496,2.049436569213867,-3.883395195007324
1714858325071406000,8.649406005859374,11.30063247680664,1.37906014919281,-2.4803929328918457
1714858325081355500,8.65935546875,12.842497825622559,0.9145850539207458,-0.20111294090747833
1714858325091305000,8.669304931640625,13.455413818359375,0.5841852426528931,2.6192567348480225
1714858325101254400,8.67925439453125,12.966996192932129,0.6847416758537292,4.548983097076416
1714858325111203800,8.689203857421875,12.78503704071045,1.7142484188079834,3.4093432426452637
1714858325121153300,8.6991533203125,12.617443084716797,2.7102363109588623,0.3926490843296051
1714858325131102700,8.709102783203125,11.133037567138672,2.9879636764526367,-1.1635819673538208
1714858325141052000,8.719052001953125,9.32302188873291,2.63362193107605,-1.3263877630233765
1714858325151001300,8.72900146484375,7.283161640167236,2.0925323963165283,-0.689530074596405
1714858325160950800,8.73895068359375,4.73573112487793,1.9776105880737305,0.40701428055763245
1714858325170900200,8.748900146484376,2.5953147411346436,2.456450939178467,1.0199298858642578
1714858325180849700,8.758849609375,1.7142484188079834,3.5003228187561035,0.181959331035614
1714858325190799000,8.768799072265624,1.800439715385437,4.4723687171936035,-1.5131354331970215
1714858325200748500,8.77874853515625,2.1595699787139893,4.888959884643555,-3.1938650608062744
1714858325210698000,8.788697998046874,2.3702597618103027,4.668693542480469,-4.333505153656006
1714858325220647400,8.7986474609375,1.9823989868164062,4.309563159942627,-4.553771495819092
1714858325230596900,8.808596923828125,1.2641384601593018,4.323928356170654,-3.6391866207122803
1714858325240546300,8.81854638671875,1.0965443849563599,4.51067590713501,-2.4899697303771973
1714858325250495700,8.828495849609375,2.3367409706115723,4.496310710906982,-1.7908629179000854
1714858325260445200,8.838445068359375,4.668693542480469,4.0749311447143555,-1.2449848651885986
1714858325270394600,8.84839453125,7.1921820640563965,3.6822822093963623,-1.173158884048462
1714858325280344000,8.858343994140625,10.347740173339844,3.9264907836914062,-1.3407529592514038
1714858325290293500,8.86829345703125,13.053187370300293,4.611232280731201,-0.9289502501487732
1714858325300243000,8.878242919921876,12.57913589477539,5.60722017288208,-0.5123591423034668
1714858325310192400,8.8881923828125,9.490615844726562,6.3733649253845215,0.06703764945268631
1714858325320141800,8.898141845703124,7.450755596160889,6.435614109039307,0.16759411990642548
1714858325330091000,8.908091064453124,5.808333396911621,6.517016887664795,-0.31603461503982544
1714858325340040400,8.91804052734375,5.7556610107421875,6.14831018447876,-0.608127236366272
1714858325349990000,8.927989990234375,6.675034523010254,5.324704647064209,-0.6943184733390808
1714858325359939300,8.937939208984375,7.762001991271973,4.697423934936523,-1.3694833517074585
1714858325369888800,8.947888671875,8.432378768920898,4.347870349884033,-2.188300371170044
1714858325379838200,8.957838134765625,9.68694019317627,3.9408559799194336,-3.399766445159912
1714858325389787600,8.96778759765625,10.773907661437988,3.3039982318878174,-4.481945514678955
1714858325399737000,8.977737060546875,11.310209274291992,3.00711727142334,-4.467580318450928
1714858325409686500,8.9876865234375,11.434707641601562,3.2130186557769775,-3.711012601852417
1714858325419636000,8.997635986328126,12.090718269348145,3.73016619682312,-2.738966703414917
1714858325429585400,9.00758544921875,12.42111873626709,4.247313976287842,-1.6950948238372803
1714858325439534800,9.017534912109374,12.196063041687012,4.448426723480225,-1.2018892765045166
1714858325449484300,9.027484375,12.248735427856445,4.4292731285095215,-1.1827356815338135
1714858325459433700,9.037433837890624,11.69806957244873,4.175487995147705,-1.37906014919281
1714858325469383200,9.047383056640625,11.1474027633667,3.7445313930511475,-2.4420857429504395
1714858325479332600,9.05733251953125,10.94150161743164,3.600879430770874,-3.6774938106536865
1714858325489282000,9.067281982421875,11.549629211425781,4.2760443687438965,-4.2090067863464355
1714858325499231500,9.0772314453125,11.425130844116211,4.371812343597412,-3.8498764038085938
1714858325509181000,9.087180908203125,10.745177268981934,3.6296098232269287,-4.304774761199951
1714858325519130400,9.09713037109375,10.639832496643066,3.069366693496704,-5.2480902671813965
1714858325529079800,9.107079833984375,9.940725326538086,2.959233283996582,-5.468356609344482
1714858325539029200,9.117029296875,8.954314231872559,3.3231520652770996,-4.750096321105957
1714858325548979000,9.12697900390625,7.690176010131836,3.845088005065918,-3.5721490383148193
1714858325558928400,9.136928466796874,6.789956092834473,4.434061527252197,-2.604891538619995
1714858325568877800,9.1468779296875,7.105990409851074,4.922478675842285,-2.537853717803955
1714858325578827300,9.1568271484375,8.245630264282227,5.104437828063965,-3.160346269607544
1714858325588776700,9.166776611328125,9.773131370544434,4.884171485900879,-3.773261785507202
1714858325598726100,9.17672607421875,10.78348445892334,4.630385875701904,-4.098873138427734
1714858325608675800,9.18667578125,10.496180534362793,4.41969633102417,-3.773261785507202
1714858325618625300,9.196625244140625,9.375694274902344,4.261679172515869,-3.002328872680664
1714858325628574700,9.20657470703125,8.159439086914062,4.371812343597412,-2.2888567447662354
1714858325638524200,9.216524169921875,6.98628044128418,4.7405195236206055,-1.987187385559082
1714858325648473600,9.2264736328125,6.210559368133545,5.104437828063965,-1.9919757843017578
1714858325658423000,9.236423095703126,6.191405773162842,5.276820659637451,-2.2409727573394775
1714858325668372500,9.24637255859375,6.698976516723633,5.386953830718994,-2.22660756111145
1714858325678322200,9.256322265625,7.417236804962158,5.568912982940674,-1.6711528301239014
1714858325688271600,9.266271728515624,8.078036308288574,5.717353820800781,-1.1348515748977661
1714858325698221000,9.276220947265625,8.33182144165039,5.722142219543457,-1.0342950820922852
1714858325708170500,9.28617041015625,8.17380428314209,5.564124584197998,-1.216254472732544
1714858325718120000,9.296119873046875,7.781155586242676,5.4444146156311035,-1.292868971824646
1714858325728069400,9.3060693359375,7.378929615020752,5.626373767852783,-1.0773907899856567
1714858325738019000,9.31601904296875,6.933608055114746,5.975927352905273,-0.6847416758537292
1714858325747968500,9.325968505859375,6.3302693367004395,6.296750545501709,-0.3208230137825012
1714858325757918000,9.33591796875,6.01423454284668,6.521805286407471,-0.09576806426048279
1714858325767867400,9.345867431640626,6.660669326782227,6.703764915466309,-0.05267243832349777
1714858325777816800,9.35581689453125,7.8960771560668945,6.732495307922363,-0.1867477297782898
1714858325787766300,9.365766357421874,8.844181060791016,6.627150535583496,-0.1867477297782898
1714858325797715700,9.3757158203125,9.074024200439453,6.512228488922119,0.14844051003456116
1714858325807665200,9.3856650390625,8.62391471862793,6.440402507781982,0.35913026332855225
1714858325817614600,9.395614501953125,7.65186882019043,6.507440090179443,0.31124621629714966
1714858325827564000,9.40556396484375,6.722918510437012,6.497863292694092,-0.10055647045373917
1714858325837513500,9.415513427734375,6.205770969390869,6.1770405769348145,-1.0199298858642578
1714858325847463000,9.425462890625,6.502651691436768,5.750872611999512,-2.011129379272461
1714858325857412400,9.435412353515625,7.632715225219727,5.612008571624756,-2.5665841102600098
1714858325867361800,9.44536181640625,8.508993148803711,5.74129581451416,-2.3032219409942627
1714858325877311200,9.455311279296875,8.7484130859375,6.028599739074707,-1.359906554222107
1714858325887260700,9.4652607421875,8.585607528686523,6.27280855178833,-0.6416460275650024
1714858325897210000,9.475210205078126,8.317456245422363,6.2632317543029785,-0.5793967843055725
1714858325907159300,9.4851591796875,8.001421928405762,6.1530985832214355,-0.8619126081466675
1714858325917108700,9.495108642578124,7.6997528076171875,5.980715751647949,-1.1061211824417114
1714858325927058200,9.50505810546875,7.661445617675781,5.693411827087402,-1.3838485479354858
1714858325937007600,9.515007568359374,7.766790390014648,5.4013190269470215,-1.7860745191574097
1714858325946957000,9.52495703125,7.718906402587891,5.224148273468018,-2.097320795059204
1714858325956906500,9.534906494140625,7.886500358581543,5.224148273468018,-2.231395959854126
1714858325966856000,9.54485595703125,8.432378768920898,5.233725070953369,-2.2457611560821533
1714858325976805400,9.554805419921875,8.815450668334961,5.1810526847839355,-1.9823989868164062
1714858325986754800,9.5647548828125,8.729259490966797,5.190629482269287,-1.5897499322891235
1714858325996704300,9.574704345703125,8.245630264282227,5.252878665924072,-1.37906014919281
1714858326006653700,9.58465380859375,7.704541206359863,5.20978307723999,-1.4939818382263184
1714858326016603100,9.59460302734375,7.422025203704834,5.171475887298584,-1.6855180263519287
1714858326026552600,9.604552490234376,7.872135162353516,5.195417881011963,-1.8722656965255737
1714858326036502000,9.614501953125,8.777143478393555,5.152322292327881,-1.843535304069519
1714858326046451500,9.624451416015624,9.500192642211914,4.965574264526367,-1.680729627609253
1714858326056401000,9.63440087890625,9.830592155456543,4.865017890930176,-1.4413094520568848
1714858326066350300,9.644350341796875,9.897629737854004,4.898536682128906,-1.3024457693099976
1714858326076299800,9.6542998046875,9.873687744140625,4.98472785949707,-1.2832920551300049
1714858326086249200,9.664249267578125,9.758766174316406,5.037400245666504,-1.2689268589019775
1714858326096198700,9.67419873046875,9.524134635925293,4.989516258239746,-1.3407529592514038
1714858326106147800,9.68414794921875,9.227252960205078,4.941632270812988,-1.479616641998291
1714858326116097300,9.69409716796875,9.026140213012695,4.774038314819336,-1.9057846069335938
1714858326126046700,9.704046630859375,8.949525833129883,4.572925090789795,-2.1595699787139893
1714858326135996200,9.71399609375,8.992621421813965,4.491522312164307,-2.0159177780151367
1714858326145945600,9.723945556640626,9.097966194152832,4.525041103363037,-1.7286136150360107
1714858326155895000,9.73389501953125,9.102754592895508,4.663905143737793,-1.4891934394836426
1714858326165844500,9.743844482421874,9.169792175292969,4.7405195236206055,-1.5418659448623657
1714858326175794000,9.7537939453125,9.260771751403809,4.745307922363281,-1.7286136150360107
1714858326185743400,9.763743408203124,9.337387084960938,4.774038314819336,-1.7908629179000854
1714858326195692800,9.77369287109375,9.399636268615723,4.730942726135254,-1.8339585065841675
1714858326205642200,9.783642333984375,9.643844604492188,4.568136692047119,-1.8962076902389526
1714858326215591700,9.793591796875,10.089165687561035,4.481945514678955,-1.8818424940109253
1714858326225541000,9.803541015625,10.261548042297363,4.568136692047119,-1.742978811264038
1714858326235490600,9.813490478515625,10.007762908935547,4.6255974769592285,-1.6424223184585571
1714858326245440000,9.82343994140625,9.423578262329102,4.67827033996582,-1.5897499322891235
1714858326255389400,9.833389404296875,8.834604263305664,4.774038314819336,-1.599326729774475
1714858326265339000,9.8433388671875,8.494627952575684,4.793191909790039,-1.7381904125213623
1714858326275288300,9.853288330078126,8.33182144165039,4.76924991607666,-1.8722656965255737
1714858326285237800,9.86323779296875,8.245630264282227,4.793191909790039,-1.8818424940109253
1714858326295187200,9.873187255859374,8.26478385925293,4.821922302246094,-1.8387469053268433
1714858326305136400,9.883136474609374,8.389283180236816,4.8937482833862305,-1.7908629179000854
1714858326315085800,9.8930859375,8.389283180236816,4.970362663269043,-1.680729627609253
1714858326325035300,9.90303515625,8.20732307434082,5.104437828063965,-1.460463047027588
1714858326334984700,9.912984619140625,7.886500358581543,5.257667064666748,-1.1875240802764893
1714858326344934100,9.92293408203125,7.527369976043701,5.367800235748291,-0.871489405632019
1714858326354883600,9.932883544921875,7.398083209991455,5.386953830718994,-0.6943184733390808
1714858326364833000,9.9428330078125,7.594407558441162,5.310339450836182,-0.7422025203704834
1714858326374782500,9.952782470703125,7.8098859786987305,5.195417881011963,-0.933738648891449
1714858326384732000,9.96273193359375,7.939172744750977,4.9799394607543945,-1.2449848651885986
1714858326394681300,9.972681396484376,8.303091049194336,4.730942726135254,-1.5131354331970215
1714858326404630800,9.982630859375,9.002198219299316,4.481945514678955,-1.7812861204147339
1714858326414580200,9.992580322265624,9.782708168029785,4.338293552398682,-1.824381709098816
1714858326424529700,10.00252978515625,10.381258964538574,4.3191399574279785,-1.7142484188079834
1714858326434479000,10.01247900390625,10.563218116760254,4.4532151222229,-1.4173674583435059
1714858326444428500,10.022428466796875,10.47702693939209,4.592078685760498,-1.1971008777618408
1714858326454378000,10.0323779296875,10.146626472473145,4.67827033996582,-1.115697979927063
1714858326464327400,10.042327392578125,9.897629737854004,4.750096321105957,-1.0199298858642578
1714858326474276900,10.05227685546875,10.199298858642578,4.711789131164551,-0.9528923034667969
1714858326484226300,10.062226318359375,10.524910926818848,4.496310710906982,-0.9528923034667969
1714858326494175500,10.072175537109375,10.424354553222656,4.247313976287842,-0.9816226959228516
1714858326504125000,10.082125,10.055646896362305,4.079719543457031,-1.2018892765045166
1714858326514074400,10.092074462890626,9.825803756713867,3.955221176147461,-1.556231141090393
1714858326524023800,10.10202392578125,9.682151794433594,3.840299606323242,-1.8914192914962769
1714858326533973200,10.11197314453125,9.390059471130371,3.773261785507202,-2.1068975925445557
1714858326543922700,10.121922607421874,8.987833023071289,3.754108190536499,-2.3319525718688965
1714858326553872100,10.1318720703125,8.762778282165527,3.758896589279175,-2.6144683361053467
1714858326563821600,10.141821533203125,8.44195556640625,3.8115692138671875,-2.5905263423919678
1714858326573771000,10.15177099609375,8.11634349822998,3.912125587463379,-2.403778553009033
1714858326583720400,10.161720458984375,8.135497093200684,4.017470359802246,-2.2170307636260986
1714858326593670000,10.171669921875,8.432378768920898,4.122815132141113,-1.8962076902389526
1714858326603619300,10.181619384765625,8.87291145324707,4.199429988861084,-1.5514427423477173
1714858326613568800,10.19156884765625,9.217676162719727,4.194641590118408,-1.4221558570861816
1714858326623518200,10.201518310546875,9.481039047241211,4.084507942199707,-1.599326729774475
1714858326633467600,10.211467529296876,9.62947940826416,3.907337188720703,-1.9105730056762695
1714858326643417000,10.2214169921875,9.552865028381348,3.758896589279175,-2.1356279850006104
1714858326653366500,10.231366455078126,9.308655738830566,3.6343982219696045,-2.250549554824829
1714858326663316000,10.24131591796875,8.901641845703125,3.6966474056243896,-2.1739351749420166
1714858326673265400,10.251265380859374,8.580819129943848,3.955221176147461,-1.9345149993896484
1714858326683214800,10.26121484375,8.35097599029541,4.271255970001221,-1.599326729774475
1714858326693164000,10.2711640625,8.245630264282227,4.458003520965576,-1.3407529592514038
1714858326703113500,10.281113525390625,8.063671112060547,4.54419469833374,-1.158793568611145
1714858326713063000,10.29106298828125,7.86734676361084,4.5825018882751465,-1.1252747774124146
1714858326723012400,10.301012451171875,7.694964408874512,4.611232280731201,-1.1492167711257935
1714858326732961800,10.3109619140625,7.690176010131836,4.611232280731201,-1.1875240802764893
1714858326742911200,10.3209111328125,7.8098859786987305,4.525041103363037,-1.2306196689605713
1714858326752860700,10.330860595703125,8.11634349822998,4.367023944854736,-1.3503297567367554
1714858326762810000,10.34081005859375,8.815450668334961,4.223371982574463,-1.522712230682373
1714858326772759600,10.350759521484376,9.47146224975586,4.185064792633057,-1.6041151285171509
1714858326782709000,10.360708984375,9.816226959228516,4.242525577545166,-1.5514427423477173
1714858326792658400,10.370658447265624,10.031704902648926,4.357447147369385,-1.4460978507995605
1714858326802607900,10.38060791015625,10.160991668701172,4.458003520965576,-1.3215993642807007
1714858326812557300,10.390557373046875,10.02691650390625,4.477157115936279,-1.2737152576446533
1714858326822506800,10.4005068359375,9.624691009521484,4.424484729766846,-1.3120225667953491
1714858326832456200,10.410456298828125,9.255983352661133,4.338293552398682,-1.4173674583435059
1714858326842405600,10.420405517578125,9.050082206726074,4.280832767486572,-1.479616641998291
1714858326852355000,10.43035498046875,9.006986618041992,4.228160381317139,-1.580173134803772
1714858326862304500,10.440304443359375,9.160215377807617,4.156333923339844,-1.7525556087493896
1714858326872254000,10.45025390625,9.337387084960938,4.094084739685059,-1.8770540952682495
1714858326882203400,10.460203369140626,9.495404243469238,4.050989151000977,-1.920149803161621
1714858326892152600,10.470152587890626,9.59596061706543,4.046200752258301,-1.9153614044189453
1714858326902102000,10.48010205078125,9.581595420837402,4.060565948486328,-1.8483237028121948
1714858326912051500,10.490051513671874,9.47146224975586,4.108449935913086,-1.7190368175506592
1714858326922001000,10.5000009765625,9.442731857299805,4.180276393890381,-1.5083470344543457
1714858326931950300,10.509950439453124,9.50498104095459,4.242525577545166,-1.3263877630233765
1714858326941899800,10.519899658203125,9.514557838439941,4.32871675491333,-1.1779472827911377
1714858326951849200,10.52984912109375,9.41400146484375,4.376600742340088,-1.1061211824417114
1714858326961798700,10.539798583984375,9.32302188873291,4.347870349884033,-1.1444283723831177
1714858326971748000,10.549748046875,9.246406555175781,4.261679172515869,-1.2306196689605713
1714858326981697500,10.559697509765625,9.208099365234375,4.113238334655762,-1.4077905416488647
1714858326991647000,10.56964697265625,9.217676162719727,3.9408559799194336,-1.6663644313812256
1714858327001596400,10.579596435546875,9.27034854888916,3.8115692138671875,-1.867477297782898
1714858327011545900,10.5895458984375,9.246406555175781,3.821146011352539,-1.8914192914962769
1714858327021495300,10.599495361328126,9.23682975769043,3.88818359375,-1.8339585065841675
1714858327031444700,10.60944482421875,9.260771751403809,3.9647979736328125,-1.7381904125213623
1714858327041394200,10.619394287109374,9.23682975769043,4.003105163574219,-1.580173134803772
1714858327051343600,10.629343505859374,9.155426979064941,4.01268196105957,-1.4173674583435059
1714858327061293000,10.63929296875,8.992621421813965,4.065354347229004,-1.2258312702178955
1714858327071242500,10.649242431640625,8.844181060791016,4.146757125854492,-1.091755986213684
1714858327081192000,10.65919189453125,8.724471092224121,4.185064792633057,-1.0534487962722778
1714858327091141000,10.66914111328125,8.757989883422852,4.189853191375732,-1.1013327836990356
1714858327101090600,10.679090576171875,8.887276649475098,4.175487995147705,-1.1827356815338135
1714858327111040000,10.6890400390625,8.925583839416504,4.113238334655762,-1.2545616626739502
1714858327120989400,10.698989501953125,8.925583839416504,4.060565948486328,-1.2832920551300049
1714858327130939000,10.70893896484375,8.858546257019043,4.046200752258301,-1.3120225667953491
1714858327140888300,10.718888427734376,8.676587104797363,4.050989151000977,-1.3311761617660522
1714858327150837800,10.728837646484376,8.47547435760498,4.01268196105957,-1.3551181554794312
1714858327160787200,10.738787109375,8.40843677520752,3.9887399673461914,-1.3934253454208374
1714858327170736600,10.748736572265624,8.33182144165039,3.9887399673461914,-1.4077905416488647
1714858327180686000,10.75868603515625,8.17380428314209,3.97916316986084,-1.4460978507995605
1714858327190635500,10.768635498046875,8.212111473083496,4.017470359802246,-1.4508862495422363
1714858327200585000,10.7785849609375,8.710105895996094,4.098873138427734,-1.278503656387329
1714858327210534400,10.788534423828125,9.083600997924805,4.261679172515869,-0.9241618514060974
1714858327220483800,10.79848388671875,9.097966194152832,4.448426723480225,-0.5746083855628967
1714858327230433300,10.808433349609375,9.150638580322266,4.596867084503174,-0.44532153010368347
1714858327240382700,10.8183828125,9.294290542602539,4.596867084503174,-0.4118026793003082
1714858327250332200,10.828332275390625,9.5624418258667,4.3191399574279785,-0.4884171485900879
1714858327260281600,10.838281494140626,10.06043529510498,4.003105163574219,-0.6368576288223267
1714858327270231000,10.84823095703125,10.668562889099121,3.9169139862060547,-0.6799532771110535
1714858327280180500,10.858180419921876,11.15697956085205,4.0749311447143555,-0.7422025203704834
1714858327290129700,10.868129638671874,11.257535934448242,4.185064792633057,-0.6847416758537292
1714858327300079000,10.8780791015625,10.84094524383545,4.213795185089111,-0.5554547905921936
1714858327310028500,10.888028564453125,10.285490036010742,4.194641590118408,-0.5027823448181152
1714858327319978000,10.89797802734375,10.098742485046387,4.271255970001221,-0.545877993106842
1714858327329927400,10.907927490234375,10.371682167053223,4.5154643058776855,-0.507570743560791
1714858327339876900,10.917876953125,10.433931350708008,4.850652694702148,-0.2537853717803955
1714858327349826300,10.927826416015625,9.500192642211914,4.821922302246094,0.37828385829925537
1714858327359775700,10.937775634765625,9.078812599182129,4.692635536193848,0.751779317855835
1714858327369725200,10.94772509765625,10.304644584655762,4.831499099731445,0.14844051003456116
1714858327379674600,10.957674560546875,10.778696060180664,4.663905143737793,-0.6177040338516235
1714858327389624000,10.9676240234375,10.462661743164062,4.572925090789795,-0.9385270476341248
1714858327399573500,10.977573486328126,10.285490036010742,4.529829502105713,-1.139639973640442
1714858327409523000,10.98752294921875,10.558429718017578,4.4292731285095215,-1.2737152576446533
1714858327419472400,10.997472412109374,10.682928085327148,4.410119533538818,-1.0199298858642578
1714858327429421800,11.007421875,10.247182846069336,4.697423934936523,-0.26336219906806946
1714858327439371300,11.017371337890625,9.394847869873047,5.243301868438721,0.45489832758903503
1714858327449320700,11.02732080078125,8.633491516113281,5.856217384338379,0.8188169598579407
1714858327459270100,11.037270263671875,7.805097579956055,6.196194171905518,0.7852981686592102
1714858327469219600,11.047219482421875,7.182605266571045,6.157886981964111,0.35913026332855225
1714858327479169000,11.0571689453125,7.1921820640563965,5.750872611999512,-0.5267243981361389
1714858327489118200,11.0671181640625,7.42681360244751,5.224148273468018,-1.3455413579940796
1714858327499067600,11.077067626953125,7.829039573669434,4.9368438720703125,-1.7334020137786865
1714858327509017000,11.08701708984375,7.613561630249023,4.577713489532471,-2.250549554824829
1714858327518966500,11.096966552734376,6.54574728012085,4.23773717880249,-2.8778305053710938
1714858327528916000,11.106916015625,5.884947776794434,4.333505153656006,-3.2369606494903564
1714858327538865400,11.116865478515624,6.368576526641846,4.807557106018066,-3.19865345954895
1714858327548814800,11.12681494140625,6.54574728012085,5.458779811859131,-2.3942017555236816
1714858327558764300,11.136764404296875,6.277596950531006,5.995080947875977,-1.091755986213684
1714858327568713700,11.146713623046875,6.205770969390869,6.349422931671143,-0.07661445438861847
1714858327578663200,11.1566630859375,6.229712963104248,6.5265936851501465,0.06703764945268631
1714858327588612600,11.166612548828125,6.823474884033203,6.574477672576904,-0.28730419278144836
1714858327598562000,11.17656201171875,7.7763671875,6.5265936851501465,-0.42616790533065796
1714858327608511500,11.186511474609375,8.178592681884766,6.426037311553955,-0.4644751250743866
1714858327618461000,11.1964609375,7.967903137207031,6.406883716583252,-0.49799394607543945
1714858327628410400,11.206410400390626,7.508216381072998,6.205770969390869,-0.751779317855835
1714858327638359800,11.21635986328125,7.139509677886963,5.185841083526611,-1.5849615335464478
1714858327648309200,11.226309326171876,7.048529624938965,2.9257144927978516,-3.7636849880218506
1714858327658258700,11.2362587890625,7.838616371154785,1.7812861204147339,-5.693411827087402
1714858327668208000,11.2462080078125,9.466673851013184,2.322375535964966,-5.588066577911377
1714858327678157300,11.2561572265625,9.99339771270752,3.4141316413879395,-4.750096321105957
1714858327688106800,11.266106689453125,9.409213066101074,4.32871675491333,-3.9456443786621094
1714858327698056200,11.27605615234375,8.451532363891602,4.970362663269043,-2.873042106628418
1714858327708005600,11.286005615234375,8.044517517089844,5.468356609344482,-1.7477672100067139
1714858327717955000,11.295955078125,8.662221908569336,5.899312973022461,-1.2545616626739502
1714858327727904500,11.305904541015625,10.156203269958496,6.100425720214844,-1.3024457693099976
1714858327737854000,11.31585400390625,11.779472351074219,5.899312973022461,-1.436521053314209
1714858327747803400,11.325803466796875,12.550405502319336,5.214571475982666,-1.7860745191574097
1714858327757752800,11.3357529296875,12.157755851745605,4.395754337310791,-2.3750481605529785
1714858327767702300,11.345702392578126,10.970232009887695,4.036623954772949,-3.2082302570343018
1714858327777651700,11.355651611328126,9.093177795410156,4.098873138427734,-3.73016619682312
1714858327787601200,11.36560107421875,7.206547260284424,4.414907932281494,-3.8067808151245117
1714858327797550600,11.375550537109374,6.335057735443115,4.520252704620361,-4.060565948486328
1714858327807500000,11.3855,6.871358871459961,4.314351558685303,-4.280832767486572
1714858327817449500,11.395449462890625,7.5848307609558105,3.5721490383148193,-4.462791919708252
1714858327827399000,11.40539892578125,8.245630264282227,3.428496837615967,-4.194641590118408
1714858327837348400,11.415348388671875,9.418789863586426,3.8307228088378906,-2.8443117141723633
1714858327847297800,11.4252978515625,10.558429718017578,4.424484729766846,-1.37906014919281
1714858327857247200,11.435247314453125,11.592724800109863,4.745307922363281,-1.522712230682373
1714858327867196700,11.44519677734375,10.424354553222656,5.310339450836182,-1.4221558570861816
1714858327877145900,11.455145751953125,8.667010307312012,5.631162166595459,-1.5610195398330688
1714858327887095300,11.46509521484375,7.738059997558594,5.4875102043151855,-2.030282974243164
1714858327897044700,11.475044677734376,7.2352776527404785,5.114014625549316,-2.6671407222747803
1714858327906994200,11.484994140625,7.216124057769775,4.788403511047363,-3.2178070545196533
1714858327916943600,11.494943603515624,7.694964408874512,4.563348293304443,-3.4141316413879395
1714858327926893000,11.50489306640625,8.202534675598145,4.405331134796143,-3.2752678394317627
1714858327936842500,11.514842529296875,8.169015884399414,4.458003520965576,-2.853888511657715
1714858327946792000,11.5247919921875,7.321468830108643,4.67827033996582,-2.341529369354248
1714858327956741400,11.534741455078125,7.158663272857666,4.774038314819336,-2.188300371170044
1714858327966690800,11.54469091796875,6.0621185302734375,5.324704647064209,-1.8339585065841675
1714858327976640300,11.55464013671875,6.205770969390869,5.626373767852783,-1.6903064250946045
1714858327986589700,11.564589599609375,6.919242858886719,5.856217384338379,-1.6759412288665771
1714858327996539100,11.5745390625,7.043741226196289,5.760449409484863,-1.6424223184585571
1714858328006488600,11.584488525390626,7.608773231506348,5.473145008087158,-1.8483237028121948
1714858328016438000,11.59443798828125,8.236053466796875,5.061342239379883,-2.0925323963165283
1714858328026387500,11.604387451171876,8.130708694458008,4.841075897216797,-2.03507137298584
1714858328036337000,11.6143369140625,7.4986395835876465,5.319916248321533,-1.5753847360610962
1714858328046286300,11.624286376953124,6.976703643798828,5.722142219543457,-1.3263877630233765
1714858328056235800,11.63423583984375,6.636727333068848,5.559336185455322,-1.5418659448623657
1714858328066185200,11.644185302734375,6.651092529296875,5.094861030578613,-2.097320795059204
1714858328076134400,11.654134521484375,7.01979923248291,4.960785865783691,-2.3798365592956543
1714858328086083800,11.664083740234375,8.149862289428711,5.037400245666504,-2.341529369354248
1714858328096033300,11.674033203125,9.318233489990234,4.797980308532715,-2.078166961669922
1714858328105982700,11.683982666015625,10.108319282531738,4.496310710906982,-1.7142484188079834
1714858328115932200,11.69393212890625,10.496180534362793,4.501099109649658,-1.4173674583435059
1714858328125881600,11.703881591796875,10.395624160766602,4.649539470672607,-1.3455413579940796
1714858328135831000,11.7138310546875,10.395624160766602,4.67827033996582,-1.5131354331970215
1714858328145780500,11.723780517578126,10.251971244812012,4.458003520965576,-1.6280571222305298
1714858328155730000,11.73372998046875,10.046070098876953,4.357447147369385,-1.5897499322891235
1714858328165679400,11.743679443359374,9.806650161743164,4.525041103363037,-1.3982137441635132
1714858328175628800,11.75362890625,9.768342971801758,4.726154327392578,-1.2066776752471924
1714858328185578200,11.763578125,9.830592155456543,4.754884719848633,-1.0773907899856567
1714858328195527700,11.773527587890625,9.586383819580078,4.697423934936523,-0.9864110946655273
1714858328205477000,11.78347705078125,9.02135181427002,4.707000732421875,-1.048660397529602
1714858328215426600,11.793426513671875,8.413225173950195,4.745307922363281,-1.216254472732544
1714858328225376000,11.8033759765625,8.274360656738281,4.730942726135254,-1.3120225667953491
1714858328235325400,11.813325439453125,8.293514251708984,4.788403511047363,-1.091755986213684
1714858328245275000,11.82327490234375,8.705317497253418,4.960785865783691,-0.6560112833976746
1714858328255224300,11.833224365234376,9.337387084960938,5.123591423034668,-0.26336219906806946
1714858328265173800,11.843173828125,9.457097053527832,5.085284233093262,-0.1388636976480484
1714858328275123000,11.853123046875,9.184157371520996,4.98472785949707,-0.3208230137825012
1714858328285072400,11.863072265625,8.604761123657227,4.903325080871582,-0.5985504388809204
1714858328295021800,11.873021728515624,8.188169479370117,4.898536682128906,-0.7996633648872375
1714858328304971300,11.88297119140625,8.317456245422363,4.946420669555664,-0.7469909191131592
1714858328314920700,11.892920654296875,8.887276649475098,4.932055473327637,-0.5746083855628967
1714858328324870100,11.9028701171875,9.165003776550293,4.855441093444824,-0.5602431893348694
1714858328334819600,11.912819580078125,9.093177795410156,4.855441093444824,-0.6847416758537292
1714858328344769000,11.92276904296875,8.949525833129883,4.908113479614258,-0.6416460275650024
1714858328354718500,11.932718505859375,8.767566680908203,4.960785865783691,-0.4405331015586853
1714858328364668000,11.94266796875,8.667010307312012,5.094861030578613,-0.2585737705230713
1714858328374617300,11.952617431640626,8.858546257019043,5.123591423034668,-0.2346317619085312
1714858328384566800,11.96256689453125,9.121908187866211,5.018246650695801,-0.2968810200691223
1714858328394516200,11.97251611328125,9.35654067993164,4.922478675842285,-0.14844051003456116
1714858328404465700,11.982465576171874,9.979032516479492,4.841075897216797,0.33039984107017517
1714858328414415000,11.9924150390625,10.280701637268066,4.563348293304443,0.5027823448181152
1714858328424364500,12.002364501953124,9.916783332824707,4.299986362457275,-0.2346317619085312
1714858328434314000,12.01231396484375,9.466673851013184,4.031835556030273,-1.2114660739898682
1714858328444263400,12.022263427734375,9.08838939666748,3.801992416381836,-1.944091796875
1714858328454212900,12.032212890625,9.217676162719727,3.840299606323242,-2.3942017555236816
1714858328464162300,12.042162353515625,9.739612579345703,3.8786067962646484,-2.4612393379211426
1714858328474111500,12.052111572265625,10.251971244812012,3.993528366088867,-2.097320795059204
1714858328484061000,12.06206103515625,10.486603736877441,4.261679172515869,-1.3120225667953491
1714858328494010400,12.07201025390625,10.539276123046875,4.424484729766846,-0.44532153010368347
1714858328503959800,12.081959716796876,10.596736907958984,4.414907932281494,0.22026655077934265
1714858328513909200,12.0919091796875,10.845733642578125,4.323928356170654,0.5602431893348694
1714858328523858700,12.101858642578126,10.524910926818848,4.060565948486328,0.23942017555236816
1714858328533808000,12.11180810546875,9.634267807006836,3.6583402156829834,-0.6512228846549988
1714858328543757600,12.121757568359374,8.83939266204834,3.423708438873291,-1.4269442558288574
1714858328553707000,12.13170703125,8.5903959274292,3.318363666534424,-1.8531121015548706
1714858328563656400,12.141656494140625,8.820239067077637,3.19865345954895,-2.0015525817871094
1714858328573606000,12.15160595703125,9.279925346374512,3.093308687210083,-1.8052281141281128
1714858328583555300,12.161555419921875,9.394847869873047,3.0885202884674072,-1.522712230682373
1714858328593504800,12.1715048828125,9.198522567749023,3.2130186557769775,-1.316810965538025
1714858328603454200,12.1814541015625,8.848969459533691,3.375824451446533,-1.0007762908935547
1714858328613403600,12.191403564453125,8.403648376464844,3.711012601852417,-0.6512228846549988
1714858328623353000,12.20135302734375,8.17380428314209,4.213795185089111,-0.5219359993934631
1714858328633302500,12.211302490234376,8.29830265045166,4.663905143737793,-0.35434186458587646
1714858328643252000,12.221251953125,8.935160636901855,5.023035049438477,-0.004788403399288654
1714858328653201400,12.231201416015624,9.557653427124023,5.276820659637451,0.2777273952960968
1714858328663150600,12.241150634765624,9.619902610778809,5.583278179168701,0.3208230137825012
1714858328673100000,12.25110009765625,9.428366661071777,6.01423454284668,0.45010992884635925
1714858328683049500,12.261049560546875,9.136273384094238,6.430825710296631,0.7326257228851318
1714858328692999000,12.2709990234375,8.877699851989746,6.7708024978637695,1.039083480834961
1714858328702948400,12.2809482421875,8.863334655761719,7.029376029968262,1.3263877630233765
1714858328712897800,12.290897705078125,9.011775016784668,7.283161640167236,1.647210717201233
1714858328722847200,12.30084716796875,9.160215377807617,7.513004779815674,1.8291701078414917
1714858328732796700,12.310796630859375,8.844181060791016,7.613561630249023,1.8291701078414917
1714858328742746000,12.32074609375,8.427590370178223,7.647080421447754,1.6950948238372803
1714858328752695600,12.330695556640626,8.360552787780762,7.623138427734375,1.3838485479354858
1714858328762645000,12.34064501953125,8.403648376464844,7.3885064125061035,0.9097966551780701
1714858328772594400,12.350594482421876,8.470685958862305,7.048529624938965,0.3878606855869293
1714858328782544000,12.3605439453125,8.56645393371582,6.789956092834473,0.038307227194309235
1714858328792493300,12.370493408203124,8.700529098510742,6.617573261260986,-0.11013327538967133
1714858328802442800,12.38044287109375,8.9064302444458,6.507440090179443,0.07182604819536209
1714858328812392200,12.39039208984375,9.30386734008789,6.406883716583252,0.5123591423034668
1714858328822341600,12.400341552734375,9.715670585632324,6.2392897605896,0.8475474119186401
1714858328832291000,12.410291015625,9.974244117736816,6.076483726501465,0.8092401623725891
1714858328842240500,12.420240478515625,9.940725326538086,5.841852188110352,0.5027823448181152
1714858328852190000,12.43018994140625,9.744400978088379,5.60722017288208,0.2537853717803955
1714858328862139100,12.44013916015625,9.557653427124023,5.353435039520264,0.10534487664699554
1714858328872088600,12.450088623046875,9.227252960205078,5.118803024291992,-0.047884032130241394
1714858328882038000,12.4600380859375,9.030928611755371,5.07570743560791,-0.06224924325942993
1714858328891987500,12.469987548828126,9.2033109664917,5.142745018005371,0.24899697303771973
1714858328901937000,12.47993701171875,9.399636268615723,5.07570743560791,0.5889736413955688
1714858328911886600,12.489886474609374,9.35654067993164,4.946420669555664,0.7086837291717529
1714858328921836000,12.4998359375,9.184157371520996,4.912901878356934,0.47884035110473633
1714858328931785500,12.509785400390625,8.911218643188477,4.912901878356934,0.20111294090747833
1714858328941735000,12.51973486328125,8.59997272491455,4.912901878356934,0.05746084079146385
1714858328951684400,12.529684326171875,8.35097599029541,4.9368438720703125,-0.019153613597154617
1714858328961633800,12.5396337890625,8.192957878112793,5.037400245666504,0.014365210197865963
1714858328971583500,12.54958349609375,8.327033042907715,5.142745018005371,0.10055647045373917
1714858328981533000,12.559532958984375,8.504204750061035,5.0469770431518555,0.21547815203666687
1714858328991482400,12.569482421875,8.537723541259766,4.970362663269043,0.3016694188117981
1714858329001431800,12.579431884765626,8.619126319885254,5.114014625549316,0.33518823981285095
1714858329011381200,12.58938134765625,8.829815864562988,5.233725070953369,0.42616790533065796
1714858329021330700,12.59933056640625,8.7484130859375,5.166687488555908,0.5602431893348694
1714858329031280000,12.609280029296874,8.451532363891602,5.147533416748047,0.5363011956214905
1714858329041229800,12.619229736328125,8.202534675598145,5.276820659637451,0.35434186458587646
1714858329051179300,12.62917919921875,8.14028549194336,5.377377033233643,0.14365209639072418
1714858329061128700,12.639128662109375,8.078036308288574,5.367800235748291,-0.047884032130241394
1714858329071078100,12.649078125,7.814674377441406,5.458779811859131,-0.19153612852096558
1714858329081027600,12.659027587890625,7.675810813903809,5.521028995513916,-0.37828385829925537
1714858329090977000,12.66897705078125,7.953537940979004,5.535394191741943,-0.40701428055763245
1714858329100926700,12.6789267578125,8.494627952575684,5.4444146156311035,-0.33518823981285095
1714858329110876200,12.688876220703126,8.820239067077637,5.377377033233643,-0.3447650372982025
1714858329120825600,12.69882568359375,8.829815864562988,5.430049419403076,-0.4836287498474121
1714858329130775000,12.708775146484374,8.662221908569336,5.51624059677124,-0.5027823448181152
1714858329140724500,12.718724365234374,8.341399192810059,5.5114521980285645,-0.43095630407333374
1714858329150674000,12.728673828125,7.99184513092041,5.4444146156311035,-0.3926490843296051
1714858329160623400,12.738623291015625,7.618350028991699,5.286397457122803,-0.5841852426528931
1714858329170572800,12.74857275390625,7.1251444816589355,5.214571475982666,-0.7326257228851318
1714858329180522200,12.758522216796875,6.900089263916016,5.592854976654053,-0.4213795065879822
1714858329190471400,12.768471435546875,6.995857238769531,5.999869346618652,0.10055647045373917
1714858329200420900,12.7784208984375,7.378929615020752,6.368576526641846,0.8427590131759644
1714858329210370300,12.788370361328125,7.8960771560668945,6.36378812789917,1.2210428714752197
1714858329220319700,12.79831982421875,8.015787124633789,6.110002517700195,1.1444283723831177
1714858329230269000,12.80826904296875,7.690176010131836,6.0190229415893555,0.828393816947937
1714858329240218400,12.81821826171875,7.297526836395264,6.057330131530762,0.507570743560791
1714858329250167800,12.828167724609376,7.086836814880371,6.009446144104004,0.14365209639072418
1714858329260117200,12.8381171875,7.1490864753723145,5.856217384338379,-0.20111294090747833
1714858329270066400,12.84806640625,7.42681360244751,5.851428985595703,-0.2585737705230713
1714858329280016000,12.858015869140624,7.881711959838867,6.095637321472168,0.06703764945268631
1714858329289965300,12.86796533203125,8.145073890686035,6.038176536560059,0.17238251864910126
1714858329299914800,12.877914794921875,8.341399192810059,5.765237808227539,0.35434186458587646
1714858329309864000,12.887864013671875,8.111555099487305,5.51624059677124,0.5985504388809204
1714858329319813400,12.8978134765625,7.790732383728027,5.664681434631348,0.44532153010368347
1714858329329762800,12.9077626953125,7.196970462799072,5.851428985595703,0.3878606855869293
1714858329339712000,12.9177119140625,6.995857238769531,5.669469833374023,-0.44532153010368347
1714858329349661400,12.927661376953125,6.9240312576293945,5.30076265335083,-1.048660397529602
1714858329359611000,12.93761083984375,7.42681360244751,4.587290287017822,-0.4884171485900879
1714858329369560300,12.947560302734376,8.523358345031738,4.017470359802246,0.31124621629714966
1714858329379509500,12.957509521484376,10.553641319274902,3.4620156288146973,0.5506663918495178
