time,seconds_elapsed,z,y,x
1714858316624300500,0.202300537109375,-0.07855701446533203,-0.15949249267578125,-0.16446131467819214
1714858316634254300,0.21225439453125,-0.09371757507324219,-0.1296687126159668,-0.15361249446868896
1714858316644208400,0.22220849609375,-0.4031238555908203,-0.11243486404418945,-0.16873037815093994
1714858316654163000,0.232162841796875,-0.8619089126586914,-0.12865161895751953,-0.25554680824279785
1714858316664117500,0.242117431640625,-1.3601770401000977,-0.17897701263427734,-0.3688488006591797
1714858316674069000,0.252069091796875,-1.7239103317260742,-0.1929025650024414,-0.5687674283981323
1714858316684018400,0.262018310546875,-1.7814617156982422,-0.1877422332763672,-0.6968588829040527
1714858316693968000,0.2719677734375,-1.3835201263427734,-0.1424875259399414,-0.5738859176635742
1714858316703917300,0.281917236328125,-0.5226621627807617,-0.1311626434326172,-0.4473203420639038
1714858316713866800,0.29186669921875,0.21542930603027344,-0.1999821662902832,-0.35323524475097656
1714858316723816000,0.30181591796875,0.3712167739868164,-0.2828202247619629,-0.24403071403503418
1714858316733765400,0.311765380859375,0.15032482147216797,-0.23800945281982422,-0.08837926387786865
1714858316743714800,0.32171484375,-0.1268167495727539,-0.10922479629516602,-0.07432889938354492
1714858316753664300,0.331664306640625,-0.427947998046875,-0.024872779846191406,-0.12061262130737305
1714858316763613400,0.341613525390625,-0.7361021041870117,-0.047636985778808594,-0.21184790134429932
1714858316773563000,0.35156298828125,-0.8974084854125977,-0.0825948715209961,-0.2562599182128906
1714858316783512300,0.36151220703125,-0.9234237670898438,-0.10530328750610352,-0.28215599060058594
1714858316793461800,0.371461669921875,-0.8187732696533203,-0.10818099975585938,-0.3330000638961792
1714858316803411000,0.381410888671875,-0.5038681030273438,-0.025291919708251953,-0.31434929370880127
1714858316813360400,0.3913603515625,-0.11322593688964844,0.10977458953857422,-0.18301653861999512
1714858316823309800,0.401309814453125,0.17290782928466797,0.15461397171020508,-0.02804875373840332
1714858316833259300,0.41125927734375,0.3040323257446289,0.14440298080444336,0.042255401611328125
1714858316843208400,0.42120849609375,0.16922760009765625,0.05914115905761719,0.0033583641052246094
1714858316853158000,0.431157958984375,-0.07126140594482422,0.07867240905761719,0.08901405334472656
1714858316863107300,0.441107421875,-0.04363059997558594,0.23572874069213867,0.18318915367126465
1714858316873056800,0.451056884765625,0.12874698638916016,0.2482891082763672,0.1325777769088745
1714858316883006000,0.461005859375,0.2337017059326172,0.06150960922241211,-0.0326688289642334
1714858316892955400,0.470955322265625,0.21823883056640625,-0.11157798767089844,-0.1591789722442627
1714858316902904800,0.48090478515625,0.047850608825683594,-0.14414310455322266,-0.21320641040802002
1714858316912854300,0.490854248046875,-0.10758781433105469,-0.14700841903686523,-0.29295992851257324
1714858316922803500,0.500803466796875,-0.06834793090820312,-0.09711503982543945,-0.3149535655975342
1714858316932753000,0.5107529296875,-0.0776052474975586,-0.07740640640258789,-0.2178356647491455
1714858316942702300,0.520702392578125,-0.16692638397216797,-0.12368106842041016,-0.13184607028961182
1714858316952651800,0.53065185546875,-0.16191768646240234,-0.05155181884765625,0.016716599464416504
1714858316962601000,0.54060107421875,-0.13067626953125,0.02014636993408203,0.09463739395141602
1714858316972550400,0.55055029296875,-0.13856983184814453,-0.07351303100585938,0.04416918754577637
1714858316982499800,0.560499755859375,-0.2867765426635742,-0.2938566207885742,-0.09972620010375977
1714858316992449300,0.57044921875,-0.540247917175293,-0.4187657833099365,-0.304925799369812
1714858317002398700,0.580398681640625,-0.65972900390625,-0.3833639621734619,-0.43393146991729736
1714858317012348400,0.590348388671875,-0.7941122055053711,-0.32201337814331055,-0.37916100025177
1714858317022297900,0.6002978515625,-0.7179098129272461,-0.1659078598022461,-0.10453307628631592
1714858317032247300,0.610247314453125,-0.5186700820922852,-0.03155660629272461,-0.03588676452636719
1714858317042196700,0.62019677734375,-0.352142333984375,-0.02265167236328125,-0.05428338050842285
1714858317052146200,0.630146240234375,-0.23073101043701172,-0.0611720085144043,-0.20195698738098145
1714858317062095600,0.640095703125,-0.2524242401123047,-0.2147831916809082,-0.34520423412323
1714858317072045300,0.65004541015625,-0.22204875946044922,-0.21732234954833984,-0.2711907625198364
1714858317081994800,0.659994873046875,0.010291099548339844,0.011203765869140625,-0.03463280200958252
1714858317091944200,0.669944091796875,0.30068206787109375,0.23882055282592773,0.31227433681488037
1714858317101893600,0.6798935546875,0.45177268981933594,0.30866146087646484,0.6011027693748474
1714858317111843000,0.689843017578125,0.38201332092285156,0.31595754623413086,0.5885798335075378
1714858317121792500,0.69979248046875,0.1701364517211914,0.26427698135375977,0.32833051681518555
1714858317131742000,0.709741943359375,0.25583457946777344,0.22754478454589844,0.04521441459655762
1714858317141691600,0.719691650390625,0.8379316329956055,0.27201414108276367,0.05633831024169922
1714858317151641000,0.72964111328125,1.1912965774536133,0.2847909927368164,0.2573894262313843
1714858317161590500,0.739590576171875,0.9876556396484375,0.27648115158081055,0.49635744094848633
1714858317171540000,0.7495400390625,0.7811403274536133,0.27875804901123047,0.46935391426086426
1714858317181489400,0.759489501953125,1.0083599090576172,0.3254857063293457,0.2994743585586548
1714858317191438800,0.76943896484375,1.7622299194335938,0.3105030059814453,0.2622964382171631
1714858317201388500,0.779388427734375,1.7180547714233398,-0.029272079467773438,0.5140140056610107
1714858317211338000,0.789337890625,0.5410737991333008,-0.32598018646240234,0.633787989616394
1714858317221287400,0.799287353515625,-0.29116249084472656,-0.45798349380493164,0.5389212369918823
1714858317231236900,0.80923681640625,-0.9160947799682617,-0.4808058738708496,0.2514601945877075
1714858317241186300,0.819186279296875,-1.235971450805664,-0.33344602584838867,-0.16259074211120605
1714858317251135700,0.8291357421875,-1.3071680068969727,0.005692958831787109,-0.43475377559661865
1714858317261085200,0.839085205078125,-0.7294340133666992,0.4658374786376953,-0.30451250076293945
1714858317271035000,0.849034912109375,-0.2921581268310547,0.7051715850830078,0.22484326362609863
1714858317280984300,0.858984375,-0.660496711730957,0.6343483924865723,0.6230648756027222
1714858317290933800,0.868933837890625,-1.364774227142334,0.397491455078125,0.608196496963501
1714858317300883200,0.87888330078125,-2.010237693786621,-0.0311279296875,0.17968106269836426
1714858317310832600,0.88883251953125,-2.747373580932617,-0.43285226821899414,-0.4085134267807007
1714858317320782000,0.898781982421875,-3.1882729530334473,-0.8139677047729492,-1.0577642917633057
1714858317330731500,0.9087314453125,-2.738117218017578,-0.8588027954101562,-1.4654134511947632
1714858317340681000,0.918680908203125,-1.7172365188598633,-0.7982854843139648,-1.6187610626220703
1714858317350630400,0.92863037109375,-0.8770179748535156,-0.7947683334350586,-1.3138585090637207
1714858317360579800,0.938579833984375,-0.36441898345947266,-0.5632171630859375,-0.556577205657959
1714858317370529300,0.948529296875,-0.34139251708984375,-0.4320640563964844,0.2002173662185669
1714858317380478500,0.958478515625,-0.5469646453857422,-0.4146265983581543,0.6313300728797913
1714858317390428000,0.968427978515625,-0.7079849243164062,-0.2632002830505371,0.641758382320404
1714858317400377300,0.97837744140625,-0.563176155090332,-0.1549968719482422,0.17713499069213867
1714858317410326800,0.988326904296875,-0.08693885803222656,-0.18137311935424805,-0.19925415515899658
1714858317420276200,0.998276123046875,0.31306934356689453,-0.18114137649536133,-0.16397738456726074
1714858317430225700,1.0082255859375,0.5360574722290039,-0.14304590225219727,0.07087945938110352
1714858317440175000,1.018175048828125,0.5427942276000977,-0.15242481231689453,0.19973349571228027
1714858317450124500,1.02812451171875,0.4399385452270508,-0.06815862655639648,0.33838438987731934
1714858317460074000,1.038073974609375,0.4032907485961914,0.1937880516052246,0.5237826108932495
1714858317470023400,1.0480234375,0.3792076110839844,0.45214414596557617,0.5186623334884644
1714858317479972900,1.057972900390625,-0.22217178344726562,0.5439004898071289,0.4876739978790283
1714858317489922300,1.06792236328125,-0.7733335494995117,0.5558686256408691,0.4505782127380371
1714858317499871700,1.077871826171875,-0.8068351745605469,0.5642414093017578,0.16556572914123535
1714858317509821200,1.0878212890625,-0.6259403228759766,0.4774742126464844,-0.18460321426391602
1714858317519770600,1.0977705078125,-0.42123889923095703,0.17017841339111328,-0.5484569072723389
1714858317529720000,1.107719970703125,-0.41489601135253906,-0.2094893455505371,-0.7960207462310791
1714858317539669500,1.11766943359375,-0.533787727355957,-0.3739800453186035,-0.8283392190933228
1714858317549619000,1.127618896484375,-0.5681114196777344,-0.3971595764160156,-0.9663389921188354
1714858317559568400,1.137568359375,0.1400909423828125,-0.4592878818511963,-0.9573557376861572
1714858317569517800,1.147517822265625,1.5400705337524414,-0.5341699123382568,-0.7029941082000732
1714858317579467000,1.157467041015625,2.3283185958862305,-0.5466921329498291,-0.2786424160003662
1714858317589416400,1.16741650390625,2.391092300415039,-0.6021151542663574,-0.07619500160217285
1714858317599366000,1.177365966796875,2.056910514831543,-0.5049374103546143,-0.2150413990020752
1714858317609315300,1.1873154296875,1.5157833099365234,-0.12307167053222656,-0.20934438705444336
1714858317619264800,1.1972646484375,0.860926628112793,0.2673935890197754,0.11003696918487549
1714858317629214200,1.207214111328125,0.33629608154296875,0.2851572036743164,0.18752944469451904
1714858317639163600,1.21716357421875,-0.07505226135253906,0.027471542358398438,0.1758136749267578
1714858317649113000,1.227113037109375,-0.31822967529296875,-0.26941633224487305,0.19809865951538086
1714858317659062500,1.2370625,-0.29135894775390625,-0.2675743103027344,0.27863526344299316
1714858317669012000,1.247011962890625,0.2987384796142578,-0.10296916961669922,0.23405516147613525
1714858317678961400,1.25696142578125,0.6244468688964844,0.048132896423339844,0.24029016494750977
1714858317688910800,1.266910888671875,0.2844371795654297,0.4291539192199707,0.4956192970275879
1714858317698860300,1.2768603515625,-0.15652847290039062,0.8483405113220215,0.6360793113708496
1714858317708809700,1.286809814453125,-0.6187171936035156,0.795137882232666,0.3932136297225952
1714858317718759200,1.29675927734375,-0.8957424163818359,0.3577709197998047,0.30059123039245605
1714858317728708600,1.30670849609375,-0.5470800399780273,0.010019302368164062,0.12232232093811035
1714858317738658000,1.316657958984375,0.0888071060180664,-0.256131649017334,-0.15965676307678223
1714858317748607500,1.326607421875,0.5136938095092773,-0.41544675827026367,-0.24096155166625977
1714858317758557000,1.336556884765625,0.6256275177001953,-0.508784294128418,-0.30936145782470703
1714858317768506400,1.34650634765625,0.39267826080322266,-0.5262374877929688,-0.1422191858291626
1714858317778455600,1.35645556640625,0.2675027847290039,-0.25128984451293945,-0.04401898384094238
1714858317788405000,1.366405029296875,0.035033226013183594,0.07520675659179688,0.0008870363235473633
1714858317798354400,1.3763544921875,-0.4344825744628906,0.05052375793457031,0.2332407832145691
1714858317808303900,1.386303955078125,-0.7562370300292969,0.02275562286376953,0.37652021646499634
1714858317818253300,1.39625341796875,-0.9221582412719727,0.05217790603637695,0.0016903877258300781
1714858317828202800,1.40620263671875,-0.8336944580078125,-0.06882047653198242,-0.5468944311141968
1714858317838152200,1.416152099609375,-0.5817937850952148,-0.2051525115966797,-0.7933543920516968
1714858317848101600,1.4261015625,-0.251861572265625,-0.15087890625,-0.7567809820175171
1714858317858051000,1.436051025390625,0.15713882446289062,-0.05247068405151367,-0.527188777923584
1714858317868000500,1.44600048828125,0.25603199005126953,-0.04426097869873047,-0.28176355361938477
1714858317877950000,1.455949951171875,0.41790008544921875,-0.02531576156616211,-0.09928476810455322
1714858317887899400,1.4658994140625,0.5862207412719727,0.02192211151123047,0.09894287586212158
1714858317897848800,1.475848876953125,0.3708791732788086,0.05046367645263672,0.2518131136894226
1714858317907798300,1.48579833984375,-0.08936023712158203,0.059182167053222656,0.21179276704788208
1714858317917747700,1.495747802734375,-0.4861297607421875,0.08589696884155273,0.031792521476745605
1714858317927697200,1.505697265625,-0.5548295974731445,0.0660104751586914,-0.1164599061012268
1714858317937646600,1.515646484375,-0.3780326843261719,0.041457176208496094,-0.10485690832138062
1714858317947596000,1.525595947265625,-0.13232135772705078,0.08144807815551758,-0.07759308815002441
1714858317957545500,1.53554541015625,0.08313846588134766,0.07857513427734375,-0.13525062799453735
1714858317967494700,1.54549462890625,0.09312057495117188,0.06074857711791992,-0.17720812559127808
1714858317977444400,1.5554443359375,0.08426475524902344,0.04764366149902344,-0.18883764743804932
1714858317987393800,1.565393798828125,-0.02430248260498047,0.08708333969116211,-0.10847175121307373
1714858317997343200,1.57534326171875,-0.17073917388916016,0.13753747940063477,-0.044286906719207764
1714858318007292700,1.585292724609375,-0.08398056030273438,0.10934209823608398,-0.0759313702583313
1714858318017242000,1.5952421875,0.011502265930175781,0.020338058471679688,-0.21472817659378052
1714858318027191600,1.605191650390625,0.049576759338378906,0.007109165191650391,-0.30197179317474365
1714858318037141200,1.615141357421875,0.035605430603027344,0.029933452606201172,-0.3128960132598877
1714858318047090700,1.625090576171875,-0.03516197204589844,-0.006006717681884766,-0.21979135274887085
1714858318057040100,1.6350400390625,-0.029432296752929688,0.015044689178466797,-0.1343473196029663
1714858318066989600,1.644989501953125,0.033206939697265625,0.06959819793701172,-0.0016350746154785156
1714858318076939000,1.65493896484375,0.12891483306884766,0.06703472137451172,0.09994816780090332
1714858318086888400,1.664888427734375,0.0816488265991211,0.012476921081542969,-0.017804086208343506
1714858318096838000,1.674837890625,-0.11652660369873047,-0.06835556030273438,-0.27057600021362305
1714858318106787600,1.68478759765625,-0.20404720306396484,-0.21174097061157227,-0.5087985992431641
1714858318116737000,1.694737060546875,-0.18262577056884766,-0.23387956619262695,-0.5709011554718018
1714858318126686500,1.7046865234375,0.016948699951171875,-0.11918163299560547,-0.3818173408508301
1714858318136636000,1.714635986328125,0.2562599182128906,-0.07890987396240234,-0.12315034866333008
1714858318146585300,1.72458544921875,0.32819461822509766,-0.03758811950683594,0.06874358654022217
1714858318156534800,1.73453466796875,0.16497325897216797,0.018912315368652344,0.18148231506347656
1714858318166484500,1.744484375,-0.1599445343017578,0.03590583801269531,0.16911303997039795
1714858318176434000,1.754433837890625,-0.3013038635253906,0.03972816467285156,0.11325007677078247
1714858318186383400,1.76438330078125,-0.21995925903320312,-0.011154651641845703,0.08192998170852661
1714858318196332800,1.774332763671875,-0.01342010498046875,-0.035976409912109375,0.06315433979034424
1714858318206282200,1.7842822265625,0.19477462768554688,-0.11676311492919922,-0.06889939308166504
1714858318216231700,1.794231689453125,0.06101799011230469,-0.1353015899658203,-0.1953660249710083
1714858318226181000,1.80418115234375,-0.07996273040771484,-0.05001401901245117,-0.21682870388031006
1714858318236130800,1.814130859375,-0.08670806884765625,-0.018652915954589844,-0.1372901201248169
1714858318246080300,1.824080322265625,-0.046004295349121094,-0.002921581268310547,-0.05201911926269531
1714858318256029700,1.83402978515625,-0.10451507568359375,0.044538021087646484,0.025632500648498535
1714858318265979100,1.843979248046875,-0.26114845275878906,0.07718753814697266,0.053425610065460205
1714858318275928600,1.853928466796875,-0.3406829833984375,0.03543901443481445,0.028277039527893066
1714858318285878000,1.8638779296875,-0.27376651763916016,-0.06980228424072266,-0.10885745286941528
1714858318295827700,1.87382763671875,-0.15184688568115234,-0.059302330017089844,-0.19072622060775757
1714858318305777200,1.883777099609375,-0.06498241424560547,-0.0016298294067382812,-0.15754812955856323
1714858318315726600,1.8937265625,-0.1067667007446289,-0.029204368591308594,-0.09034556150436401
1714858318325676000,1.903676025390625,-0.20009231567382812,-0.007953643798828125,-0.012744605541229248
1714858318335625500,1.91362548828125,-0.22185039520263672,0.019326210021972656,0.004737794399261475
1714858318345575000,1.923574951171875,-0.15414142608642578,-0.018668651580810547,0.005056619644165039
1714858318355524400,1.9335244140625,-0.05911540985107422,-0.023520469665527344,-0.04686129093170166
1714858318365474000,1.94347412109375,-0.0828409194946289,0.0498805046081543,-0.02179861068725586
1714858318375423500,1.953423583984375,-0.09633064270019531,0.08686256408691406,0.038504958152770996
1714858318385373000,1.963373046875,-0.057193756103515625,0.09260749816894531,0.13436466455459595
1714858318395322400,1.973322265625,0.005526542663574219,0.08682107925415039,0.21090418100357056
1714858318405271800,1.983271728515625,0.08698749542236328,0.022260665893554688,0.13235247135162354
1714858318415221200,1.99322119140625,0.07855415344238281,-0.02914142608642578,-0.03160262107849121
1714858318425171000,2.0031708984375,0.00457763671875,-0.04717063903808594,-0.08976489305496216
1714858318435120400,2.013120361328125,-0.06384944915771484,-0.025873184204101562,-0.026489973068237305
1714858318445069800,2.02306982421875,-0.08025741577148438,0.02602529525756836,0.031227409839630127
1714858318455019300,2.033019287109375,-0.10696697235107422,0.019503116607666016,0.02997058629989624
1714858318464968700,2.04296875,-0.16770458221435547,-0.001247406005859375,0.004800677299499512
1714858318474918100,2.052918212890625,-0.19135284423828125,-0.05487823486328125,-0.08749610185623169
1714858318484867600,2.06286767578125,-0.09330272674560547,-0.053043365478515625,-0.16084593534469604
1714858318494817300,2.0728173828125,0.10218048095703125,0.02347278594970703,-0.14063823223114014
1714858318504766700,2.0827666015625,0.2723369598388672,0.005397319793701172,-0.1029282808303833
1714858318514716200,2.092716064453125,0.25798702239990234,0.03432941436767578,-0.03988826274871826
1714858318524665600,2.10266552734375,0.12297630310058594,0.08235549926757812,0.0825345516204834
1714858318534615000,2.112614990234375,-0.11306285858154297,0.05809307098388672,0.08845698833465576
1714858318544564500,2.122564453125,-0.3037853240966797,0.027028560638427734,-0.04065757989883423
1714858318554514000,2.132513916015625,-0.37545299530029297,0.009886741638183594,-0.13675475120544434
1714858318564463000,2.142463134765625,-0.23119831085205078,-0.031284332275390625,-0.14441299438476562
1714858318574412500,2.15241259765625,0.1312875747680664,-0.11710691452026367,-0.16362380981445312
1714858318584362000,2.162362060546875,0.40872859954833984,-0.2124314308166504,-0.21318554878234863
1714858318594311400,2.1723115234375,0.3726329803466797,-0.16372442245483398,-0.15836137533187866
1714858318604260900,2.1822607421875,0.16434097290039062,-0.09075927734375,-0.0974387526512146
1714858318614210300,2.192210205078125,-0.07316875457763672,-0.058002471923828125,0.0007643699645996094
1714858318624159700,2.20215966796875,-0.15645885467529297,0.021318912506103516,0.18288087844848633
1714858318634109200,2.212109130859375,-0.17761802673339844,0.10944700241088867,0.342105507850647
1714858318644058600,2.22205859375,-0.2132406234741211,0.10358667373657227,0.31669455766677856
1714858318654008000,2.232008056640625,-0.1266040802001953,0.057412147521972656,0.204914391040802
1714858318663957500,2.24195751953125,-0.04177570343017578,0.02262115478515625,0.04113495349884033
1714858318673907000,2.251906982421875,0.03200721740722656,-0.006196498870849609,-0.09022802114486694
1714858318683856400,2.2618564453125,0.1000518798828125,-0.06775331497192383,-0.11048787832260132
1714858318693805800,2.271805908203125,0.1297779083251953,-0.08663463592529297,-0.09174734354019165
1714858318703755300,2.28175537109375,0.18314552307128906,-0.030921459197998047,-0.10117334127426147
1714858318713704700,2.29170458984375,0.14707279205322266,-0.03922700881958008,-0.06403100490570068
1714858318723654100,2.301654052734375,-0.0149383544921875,-0.04413127899169922,-0.038527607917785645
1714858318733603600,2.311603515625,-0.15066814422607422,-0.0024404525756835938,-0.0019074082374572754
1714858318743553000,2.321552978515625,-0.14782142639160156,0.029102325439453125,0.09279203414916992
1714858318753502200,2.331502197265625,-0.17341327667236328,0.06973409652709961,0.11488455533981323
1714858318763451600,2.34145166015625,-0.3074197769165039,0.1013789176940918,0.05686157941818237
1714858318773401000,2.351401123046875,-0.3084297180175781,0.08758544921875,0.05216878652572632
1714858318783350500,2.3613505859375,-0.2491016387939453,0.05253934860229492,0.08709859848022461
1714858318793300000,2.371300048828125,-0.17744827270507812,0.02474355697631836,0.038797736167907715
1714858318803249400,2.38124951171875,-0.1027069091796875,-0.02509927749633789,-0.08293086290359497
1714858318813198800,2.39119873046875,-0.10466670989990234,-0.05522632598876953,-0.15184694528579712
1714858318823148300,2.401148193359375,-0.05953788757324219,-0.005280017852783203,-0.07181555032730103
1714858318833097700,2.41109765625,0.09831905364990234,0.033106327056884766,0.08006525039672852
1714858318843047200,2.421047119140625,0.14149856567382812,0.04047393798828125,0.19021940231323242
1714858318852996600,2.43099658203125,0.1612110137939453,0.10252094268798828,0.20811724662780762
1714858318862946000,2.440946044921875,0.20006370544433594,0.1294560432434082,0.2733042240142822
1714858318872895500,2.4508955078125,0.18706035614013672,0.0801396369934082,0.29392027854919434
1714858318882845000,2.460844970703125,0.06609535217285156,0.055830955505371094,0.1730489730834961
1714858318892794400,2.47079443359375,-0.0768880844116211,0.02397298812866211,-0.013608098030090332
1714858318902743800,2.480743896484375,-0.14301013946533203,-0.033887386322021484,-0.168634831905365
1714858318912693200,2.490693359375,-0.10062026977539062,-0.075103759765625,-0.23728996515274048
1714858318922642700,2.500642578125,0.05372142791748047,-0.05867910385131836,-0.1601243019104004
1714858318932592400,2.51059228515625,0.22008705139160156,-0.029384613037109375,-0.05642455816268921
1714858318942541800,2.520541748046875,0.26693058013916016,-0.05414724349975586,-0.04810678958892822
1714858318952491300,2.5304912109375,0.2337207794189453,-0.08000946044921875,-0.1341477632522583
1714858318962440700,2.540440673828125,0.1451559066772461,-0.06442642211914062,-0.1586315631866455
1714858318972390100,2.55039013671875,0.10087394714355469,-0.07373666763305664,-0.1275297999382019
1714858318982339600,2.560339599609375,0.053244590759277344,-0.08903121948242188,-0.09807920455932617
1714858318992289300,2.570289306640625,-0.00264739990234375,-0.08140373229980469,-0.11239504814147949
1714858319002238700,2.58023876953125,-0.09985542297363281,-0.07430744171142578,-0.1366930603981018
1714858319012188200,2.590188232421875,-0.17684459686279297,-0.09536123275756836,-0.1665734052658081
1714858319022137600,2.6001376953125,-0.13524246215820312,-0.09672737121582031,-0.1692640781402588
1714858319032087000,2.610087158203125,-0.037952423095703125,-0.09323644638061523,-0.1254427433013916
1714858319042036500,2.620036376953125,0.015585899353027344,-0.09012126922607422,-0.08150988817214966
1714858319051986000,2.62998583984375,-0.06341934204101562,-0.06369304656982422,-0.03732025623321533
1714858319061935600,2.639935546875,-0.17426300048828125,-0.023054122924804688,0.025728166103363037
1714858319071885000,2.649885009765625,-0.24614238739013672,-0.03370332717895508,0.04121321439743042
1714858319081834500,2.65983447265625,-0.19495010375976562,-0.0761103630065918,-0.03325837850570679
1714858319091784000,2.669783935546875,-0.08814716339111328,-0.06617164611816406,-0.08422261476516724
1714858319101733400,2.6797333984375,-0.05810070037841797,-0.03383779525756836,-0.06997299194335938
1714858319111682800,2.689682861328125,-0.11306476593017578,-0.016841411590576172,0.013539135456085205
1714858319121632500,2.699632568359375,-0.2001628875732422,0.014035224914550781,0.11836493015289307
1714858319131582000,2.70958203125,-0.12120914459228516,0.06824159622192383,0.15022778511047363
1714858319141531400,2.719531494140625,0.04149436950683594,0.05988264083862305,0.12578284740447998
1714858319151480800,2.729480712890625,0.05630970001220703,-0.02493000030517578,0.037290751934051514
1714858319161430300,2.73943017578125,-0.06523418426513672,-0.03845930099487305,-0.08697384595870972
1714858319171379700,2.749379638671875,-0.1378164291381836,-0.004648685455322266,-0.1166006326675415
1714858319181329200,2.7593291015625,-0.053864479064941406,0.018697738647460938,-0.022255659103393555
1714858319191278800,2.76927880859375,0.10455894470214844,0.007128238677978516,-0.01774120330810547
1714858319201228300,2.779228271484375,0.19050025939941406,-0.010456085205078125,-0.046541452407836914
1714858319211177700,2.789177734375,0.1767587661743164,-0.00045680999755859375,-0.0030675530433654785
1714858319221127200,2.799127197265625,0.0834798812866211,0.018808364868164062,-0.037174105644226074
1714858319231076600,2.80907666015625,-0.1736602783203125,0.0066070556640625,-0.10446369647979736
1714858319241026000,2.819026123046875,-0.3529644012451172,0.05497121810913086,-0.0735785961151123
1714858319250975500,2.8289755859375,-0.31004905700683594,0.1115269660949707,0.006119132041931152
1714858319260925200,2.83892529296875,-0.17040348052978516,0.10905027389526367,0.08236312866210938
1714858319270874600,2.84887451171875,-0.014997482299804688,0.09893941879272461,0.09820032119750977
1714858319280824000,2.858823974609375,0.11426639556884766,0.06559419631958008,0.04861629009246826
1714858319290773500,2.8687734375,0.19954681396484375,0.031708717346191406,-0.009971022605895996
1714858319300723000,2.878722900390625,0.2700920104980469,-0.017543315887451172,-0.06456530094146729
1714858319310672400,2.88867236328125,0.2981538772583008,-0.030612468719482422,-0.06815725564956665
1714858319320622000,2.8986220703125,0.2466135025024414,-0.007684230804443359,0.007415592670440674
1714858319330571500,2.908571533203125,0.17763328552246094,0.009058952331542969,0.053016841411590576
1714858319340521000,2.91852099609375,0.08143901824951172,0.030470848083496094,0.07917898893356323
1714858319350470400,2.928470458984375,0.07599830627441406,0.009858131408691406,0.0114516019821167
1714858319360419800,2.938419921875,0.11291980743408203,-0.028901100158691406,-0.11072105169296265
1714858319370369300,2.948369384765625,0.1304912567138672,-0.03413724899291992,-0.15954893827438354
1714858319380318700,2.958318603515625,0.1668558120727539,-0.030148029327392578,-0.11681222915649414
1714858319390268400,2.968268310546875,0.1277627944946289,-0.012889862060546875,-0.05978113412857056
1714858319400217900,2.9782177734375,0.01435089111328125,-0.0014739036560058594,-0.018764793872833252
1714858319410167300,2.988167236328125,-0.11118602752685547,-0.00021219253540039062,0.009996175765991211
1714858319420116700,2.99811669921875,-0.18776226043701172,0.005832672119140625,0.007962048053741455
1714858319430066200,3.008066162109375,-0.1786041259765625,0.031003475189208984,0.023676037788391113
1714858319440015600,3.018015625,-0.15559959411621094,0.05599832534790039,0.1144360899925232
1714858319449965300,3.02796533203125,-0.16141986846923828,0.05759429931640625,0.157845139503479
1714858319459914800,3.037914794921875,-0.15341472625732422,0.04595661163330078,0.10741430521011353
1714858319469864200,3.0478642578125,-0.12719058990478516,0.002612590789794922,0.002267301082611084
1714858319479813600,3.057813720703125,-0.0735769271850586,-0.029694080352783203,-0.10994893312454224
1714858319489763000,3.06776318359375,0.026172637939453125,-0.05183982849121094,-0.11136794090270996
1714858319499712500,3.07771240234375,0.0635986328125,-0.05586433410644531,-0.0800546407699585
1714858319509662000,3.087661865234375,0.0019865036010742188,-0.032622337341308594,-0.055055201053619385
1714858319519611600,3.097611572265625,-0.06791496276855469,-0.010235309600830078,-0.04166710376739502
1714858319529561000,3.10756103515625,-0.07557201385498047,-0.016356468200683594,-0.02467423677444458
1714858319539510500,3.117510498046875,-0.09267425537109375,-0.007976055145263672,-0.02223294973373413
1714858319549460000,3.1274599609375,-0.09101009368896484,0.01996326446533203,0.04735839366912842
1714858319559409400,3.137409423828125,-0.12290668487548828,0.0017757415771484375,0.05678278207778931
1714858319569358800,3.14735888671875,-0.1455707550048828,-0.014511585235595703,-0.031285762786865234
1714858319579308500,3.15730859375,-0.10246944427490234,-0.029546260833740234,-0.09925472736358643
1714858319589258000,3.167258056640625,-0.036658287048339844,-0.06784868240356445,-0.11558026075363159
1714858319599207400,3.17720751953125,0.014134407043457031,-0.040183067321777344,-0.09528243541717529
1714858319609156900,3.187156982421875,0.07843017578125,-0.00872182846069336,-0.023709595203399658
1714858319619106300,3.197106201171875,0.10907459259033203,-0.0018496513366699219,0.0008590817451477051
1714858319629055700,3.2070556640625,0.040584564208984375,-0.023623943328857422,-0.03017479181289673
1714858319639005200,3.217005126953125,-0.04098033905029297,-0.04017829895019531,-0.12676292657852173
1714858319648955000,3.226954833984375,-0.017899513244628906,-0.013783454895019531,-0.08228331804275513
1714858319658904300,3.236904296875,0.09423446655273438,0.040244102478027344,0.06830549240112305
1714858319668853800,3.246853759765625,0.12950515747070312,0.05512523651123047,0.1650804877281189
1714858319678803200,3.25680322265625,0.08905696868896484,0.02727985382080078,0.12554329633712769
1714858319688752600,3.266752685546875,0.025644302368164062,-0.0044116973876953125,0.022109389305114746
1714858319698702000,3.2767021484375,-0.027463912963867188,0.011791706085205078,-0.04221236705780029
1714858319708651800,3.28665185546875,-0.00911712646484375,0.022884368896484375,-0.04109776020050049
1714858319718601200,3.296601318359375,0.008872032165527344,0.03836822509765625,0.029164791107177734
1714858319728550700,3.306550537109375,0.031232833862304688,0.0630192756652832,0.13550567626953125
1714858319738500000,3.3165,0.048460960388183594,0.06865930557250977,0.18913543224334717
1714858319748449500,3.326449462890625,0.055938720703125,0.046297550201416016,0.11164039373397827
1714858319758399000,3.33639892578125,0.06321144104003906,0.01999044418334961,0.022815227508544922
1714858319768348400,3.346348388671875,0.023271560668945312,0.05082130432128906,-0.03510332107543945
1714858319778298000,3.356298095703125,-0.058441162109375,0.0435481071472168,-0.07350695133209229
1714858319788247600,3.36624755859375,-0.021363258361816406,0.022606849670410156,-0.04671984910964966
1714858319798197000,3.376197021484375,0.13768482208251953,0.020443439483642578,0.021428048610687256
1714858319808146400,3.386146484375,0.23836898803710938,0.026263713836669922,0.0604783296585083
1714858319818095900,3.396095947265625,0.25376129150390625,0.010876655578613281,0.00420689582824707
1714858319828045300,3.40604541015625,0.1900167465209961,-0.04897165298461914,-0.10352933406829834
1714858319837995000,3.4159951171875,0.02455425262451172,-0.06708097457885742,-0.21941286325454712
1714858319847944400,3.4259443359375,-0.21345138549804688,-0.0710439682006836,-0.2970339059829712
1714858319857894000,3.435893798828125,-0.3354682922363281,-0.045022010803222656,-0.26174527406692505
1714858319867843300,3.44584326171875,-0.28734588623046875,-0.0025720596313476562,-0.15615427494049072
1714858319877792800,3.455792724609375,-0.19883346557617188,0.032291412353515625,-0.041262924671173096
1714858319887742200,3.4657421875,-0.008797645568847656,0.03506660461425781,0.05485975742340088
1714858319897691600,3.475691650390625,0.06041240692138672,0.009709358215332031,0.07099378108978271
1714858319907641300,3.485641357421875,0.12403297424316406,0.003001689910888672,0.0203893780708313
1714858319917590800,3.4955908203125,0.1307353973388672,-0.02393627166748047,-0.012179076671600342
1714858319927540200,3.505540283203125,0.07198619842529297,-0.009470462799072266,0.04337918758392334
1714858319937489700,3.51548974609375,0.0850992202758789,0.008814334869384766,0.09702819585800171
1714858319947439000,3.525439208984375,0.0604705810546875,-0.0016207695007324219,0.10340613126754761
1714858319957388500,3.535388427734375,0.012528419494628906,-0.016105175018310547,0.04931432008743286
1714858319967338200,3.545338134765625,-0.011487007141113281,-0.024810791015625,0.03397667407989502
1714858319977287700,3.55528759765625,0.039940834045410156,-0.04214763641357422,0.02877742052078247
1714858319987237000,3.565237060546875,0.10461902618408203,-0.04962968826293945,0.019651174545288086
1714858319997186600,3.5751865234375,0.1308584213256836,-0.06223583221435547,0.025115668773651123
1714858320007136000,3.585135986328125,0.10545921325683594,-0.028736114501953125,0.06315404176712036
1714858320017085400,3.59508544921875,-0.013175010681152344,0.02660655975341797,0.10903286933898926
1714858320027035000,3.605034912109375,-0.12994098663330078,0.0762491226196289,0.16654014587402344
1714858320036984600,3.614984619140625,-0.13209056854248047,0.07849645614624023,0.19871145486831665
1714858320046934000,3.62493408203125,-0.12998390197753906,0.0675668716430664,0.21180498600006104
1714858320056883500,3.634883544921875,-0.07662296295166016,0.07674884796142578,0.2254466414451599
1714858320066833000,3.6448330078125,-0.014893531799316406,0.08629417419433594,0.2778548300266266
1714858320076782300,3.6547822265625,-0.04840278625488281,0.08652639389038086,0.292959988117218
1714858320086731800,3.664731689453125,-0.07190990447998047,0.08204317092895508,0.22336328029632568
1714858320096681200,3.67468115234375,-0.09009552001953125,0.020503997802734375,0.1536206603050232
1714858320106630700,3.684630615234375,-0.07481670379638672,-0.007691860198974609,0.14456743001937866
1714858320116580000,3.694580078125,0.011052131652832031,-0.012321949005126953,0.1071850061416626
1714858320126529500,3.704529541015625,0.06766891479492188,-0.0033693313598632812,0.104755699634552
1714858320136479000,3.71447900390625,0.015498161315917969,-0.023416519165039062,0.08062201738357544
1714858320146428400,3.724428466796875,-0.05943870544433594,-0.028576374053955078,0.03500312566757202
1714858320156377900,3.7343779296875,-0.114532470703125,-0.05189847946166992,-0.013760983943939209
1714858320166327300,3.744327392578125,-0.1595001220703125,-0.07443952560424805,-0.0759286880493164
1714858320176276700,3.75427685546875,-0.18516159057617188,-0.1056523323059082,-0.13343274593353271
1714858320186226200,3.76422607421875,-0.19167423248291016,-0.10340547561645508,-0.1774059534072876
1714858320196175600,3.774175537109375,-0.20308494567871094,-0.09603261947631836,-0.18373143672943115
1714858320206125000,3.784125,-0.20068836212158203,-0.1065068244934082,-0.20323914289474487
1714858320216074200,3.79407421875,-0.18491458892822266,-0.13398456573486328,-0.2629358768463135
1714858320226023700,3.804023681640625,-0.16530132293701172,-0.1315016746520996,-0.31176966428756714
1714858320235973000,3.81397314453125,-0.09464168548583984,-0.0955209732055664,-0.24830079078674316
1714858320245922600,3.823922607421875,0.04546833038330078,-0.060364723205566406,-0.13084757328033447
1714858320255872000,3.8338720703125,0.19783973693847656,-0.05487871170043945,-0.06672441959381104
1714858320265821400,3.843821533203125,0.26848888397216797,-0.06508970260620117,-0.08729785680770874
1714858320275771000,3.85377099609375,0.15972042083740234,-0.08107185363769531,-0.1399288773536682
1714858320285720300,3.86372021484375,0.03861713409423828,-0.07331609725952148,-0.18769007921218872
1714858320295669800,3.873669677734375,0.013422012329101562,-0.04188394546508789,-0.226945698261261
1714858320305619200,3.883619140625,0.06834697723388672,-0.01533651351928711,-0.21098709106445312
1714858320315568600,3.893568603515625,0.197662353515625,0.029428482055664062,-0.10725140571594238
1714858320325518000,3.90351806640625,0.2923851013183594,0.05362749099731445,-0.005064845085144043
1714858320335467500,3.913467529296875,0.3060474395751953,0.08599615097045898,0.08750408887863159
1714858320345417000,3.9234169921875,0.2727794647216797,0.11268806457519531,0.14279448986053467
1714858320355366400,3.933366455078125,0.17903995513916016,0.11524486541748047,0.1560620665550232
1714858320365315800,3.94331591796875,0.0821542739868164,0.12250041961669922,0.09867286682128906
1714858320375265300,3.953265380859375,0.043201446533203125,0.1298069953918457,0.06935977935791016
1714858320385214700,3.963214599609375,0.1178884506225586,0.11797761917114258,0.15227162837982178
1714858320395164200,3.9731640625,0.28143882751464844,0.10036754608154297,0.1677941083908081
1714858320405113600,3.983113525390625,0.27398681640625,0.08080673217773438,0.056869328022003174
1714858320415063000,3.99306298828125,0.12640380859375,0.04076576232910156,-0.09944981336593628
1714858320425012700,4.0030126953125,0.00036144256591796875,-0.00385284423828125,-0.14056485891342163
1714858320434962200,4.012962158203125,0.14487648010253906,0.013554573059082031,-0.019751906394958496
1714858320444911600,4.02291162109375,0.39605236053466797,0.0015234947204589844,0.06494128704071045
1714858320454861000,4.032861083984375,0.4373340606689453,-0.0924220085144043,0.13866108655929565
1714858320464810500,4.042810546875,0.3902578353881836,-0.06549215316772461,0.12827551364898682
1714858320474760000,4.052760009765625,0.18089675903320312,-0.06170845031738281,0.09573346376419067
1714858320484709600,4.062709716796875,0.17018985748291016,-0.22833251953125,0.05898827314376831
1714858320494659000,4.0726591796875,0.05400276184082031,-0.22026872634887695,-0.04184162616729736
1714858320504608500,4.0826083984375,0.09248828887939453,0.04587268829345703,-0.06317633390426636
1714858320514558000,4.092557861328125,1.0278949737548828,0.21222400665283203,0.2536199986934662
1714858320524507400,4.10250732421875,2.1572132110595703,0.12883758544921875,0.7355372905731201
1714858320534456800,4.112456787109375,2.4256200790405273,-0.1621870994567871,0.7518091797828674
1714858320544406300,4.12240625,2.3985109329223633,-0.3936443328857422,0.3798474669456482
1714858320554356000,4.13235595703125,1.598525047302246,-0.5340309143066406,0.06855183839797974
1714858320564305400,4.142305419921875,0.41477298736572266,-0.4203300476074219,-0.03249526023864746
1714858320574254800,4.1522548828125,-0.4737701416015625,-0.11939811706542969,0.20253059267997742
1714858320584204300,4.162204345703125,-1.2233967781066895,0.0032715797424316406,0.44518333673477173
1714858320594153700,4.17215380859375,-1.9577016830444336,0.26238441467285156,0.76431804895401
1714858320604103200,4.182103271484375,-1.4140610694885254,0.2919797897338867,1.4906470775604248
1714858320614052900,4.192052978515625,-1.2531237602233887,-0.006571769714355469,1.8348464965820312
1714858320624002300,4.202002197265625,-1.0689349174499512,0.20422124862670898,1.410207748413086
1714858320633951700,4.21195166015625,-0.9273710250854492,0.3049044609069824,0.8257007598876953
1714858320643901200,4.221901123046875,-0.9766650199890137,0.005002498626708984,0.10765057802200317
1714858320653850600,4.2318505859375,-1.2189507484436035,-0.34174060821533203,-0.6851296424865723
1714858320663800000,4.241800048828125,-1.6450300216674805,-0.47879934310913086,-1.1277351379394531
1714858320673749500,4.25174951171875,-1.771395206451416,-0.37732934951782227,-1.4756488800048828
1714858320683699200,4.26169921875,-2.0262084007263184,-0.35033607482910156,-1.7398470640182495
1714858320693648600,4.271648681640625,-2.2814884185791016,-0.4345588684082031,-1.6892040967941284
1714858320703598000,4.28159814453125,-1.9223275184631348,-0.3204360008239746,-1.3587790727615356
1714858320713547500,4.291547607421875,-0.8936266899108887,-0.19407987594604492,-0.7585191130638123
1714858320723497000,4.3014970703125,-0.1632823944091797,-0.1918621063232422,-0.08781450986862183
1714858320733446400,4.3114462890625,0.19694900512695312,-0.2520260810852051,0.5192368030548096
1714858320743396000,4.32139599609375,0.2827615737915039,-0.4438042640686035,0.8441718220710754
1714858320753345500,4.331345458984375,0.1140899658203125,-0.33873891830444336,1.118380069732666
1714858320763295000,4.341294921875,0.10267353057861328,-0.4700918197631836,1.5197911262512207
1714858320773244400,4.351244384765625,0.20624065399169922,-0.48819589614868164,1.5718916654586792
1714858320783193900,4.36119384765625,0.23293304443359375,-0.40697717666625977,1.009718656539917
1714858320793143300,4.371143310546875,-0.284698486328125,-0.48508691787719727,0.38249441981315613
1714858320803092700,4.3810927734375,-1.535660743713379,-0.3325819969177246,0.32167667150497437
1714858320813042400,4.39104248046875,-2.2231783866882324,-0.2968769073486328,0.6293873190879822
1714858320822992000,4.400991943359375,-1.9708056449890137,-0.4888601303100586,0.8014504909515381
1714858320832941300,4.41094140625,-1.2419133186340332,-0.4661417007446289,0.601575493812561
1714858320842890800,4.420890869140625,-0.6561069488525391,-0.5044488906860352,0.2710123658180237
1714858320852840200,4.430840087890625,-0.12600231170654297,-0.9008731842041016,-0.0018352866172790527
1714858320862789600,4.44078955078125,0.1672344207763672,-1.1668472290039062,-0.28343886137008667
1714858320872739300,4.4507392578125,0.2615690231323242,-1.1148333549499512,-0.4444684386253357
1714858320882688800,4.460688720703125,-0.38547801971435547,-0.8079056739807129,-0.3187876045703888
1714858320892638200,4.47063818359375,-0.989433765411377,-0.5158934593200684,0.22254864871501923
1714858320902587600,4.480587646484375,-1.4729795455932617,-0.5054988861083984,0.5468424558639526
1714858320912537000,4.490537109375,-1.7034969329833984,-0.4116220474243164,0.3292793929576874
1714858320922486500,4.500486572265625,-1.799086570739746,-0.30866146087646484,0.0559321865439415
1714858320932436000,4.51043603515625,-1.330273151397705,-0.28466081619262695,-0.2408708930015564
1714858320942385700,4.5203857421875,-0.43086719512939453,-0.4394087791442871,-0.584619402885437
1714858320952335000,4.530335205078125,0.5932035446166992,-0.6712417602539062,-0.7203533053398132
1714858320962284500,4.540284423828125,1.3150205612182617,-0.7366080284118652,-0.6648278832435608
1714858320972234000,4.55023388671875,1.471879005432129,-0.7302908897399902,-0.3933126926422119
1714858320982183400,4.560183349609375,1.2290430068969727,-0.6092414855957031,0.15604981780052185
1714858320992132900,4.5701328125,0.8901567459106445,-0.47925567626953125,0.5503240823745728
1714858321002082600,4.58008251953125,0.5119123458862305,-0.4679398536682129,0.5170731544494629
1714858321012032000,4.590031982421875,-0.07758617401123047,-0.3638186454772949,0.3499380648136139
1714858321021981400,4.5999814453125,-0.4065370559692383,-0.36905813217163086,0.03087747097015381
1714858321031931000,4.609930908203125,-0.4249277114868164,-0.49935436248779297,-0.42951494455337524
1714858321041880300,4.61988037109375,-0.23048973083496094,-0.5615415573120117,-1.0569849014282227
1714858321051829800,4.629829833984375,-0.05421638488769531,-0.6360964775085449,-1.8964178562164307
1714858321061779200,4.639779296875,0.005614280700683594,-0.6958742141723633,-2.4964561462402344
1714858321071729000,4.64972900390625,0.25611019134521484,-0.6799259185791016,-2.8608598709106445
1714858321081678300,4.65967822265625,0.5993709564208984,-0.6969833374023438,-3.067727565765381
1714858321091627800,4.669627685546875,1.2648248672485352,-0.6479043960571289,-3.179673194885254
1714858321101577200,4.6795771484375,1.957803726196289,-0.5988001823425293,-3.0337305068969727
1714858321111526700,4.689526611328125,1.9672517776489258,-0.3360939025878906,-2.3057260513305664
1714858321121476000,4.69947607421875,1.9162025451660156,-0.09093761444091797,-1.2067211866378784
1714858321131425800,4.70942578125,2.357211112976074,0.15265321731567383,-0.40591761469841003
1714858321141375200,4.719375244140625,2.752532958984375,0.27693748474121094,-0.30276286602020264
1714858321151324700,4.72932470703125,2.7394580841064453,0.35172224044799805,-0.44320791959762573
1714858321161274000,4.739274169921875,2.439800262451172,0.18168210983276367,-0.6119949817657471
1714858321171223600,4.7492236328125,2.02146053314209,0.21472454071044922,-0.9635331034660339
1714858321181173000,4.759173095703125,1.359994888305664,0.26851749420166016,-1.1918636560440063
1714858321191122400,4.769122314453125,0.8226795196533203,0.23787498474121094,-0.9998782277107239
1714858321201072000,4.779072021484375,0.33363914489746094,0.38686323165893555,-0.5724547505378723
1714858321211021600,4.789021484375,0.17364501953125,0.6450634002685547,0.38497477769851685
1714858321220971000,4.798970947265625,0.3206062316894531,1.179410457611084,1.240952730178833
1714858321230920400,4.80892041015625,0.010927200317382812,1.3233442306518555,1.7173724174499512
1714858321240870000,4.818869873046875,-0.46065807342529297,1.7775840759277344,1.2046294212341309
1714858321250819300,4.8288193359375,-1.354802131652832,1.7339558601379395,0.3745270371437073
1714858321260768800,4.838768798828125,-1.8292479515075684,1.7381348609924316,-0.12241262197494507
1714858321270718500,4.848718505859375,-1.8770008087158203,1.7822480201721191,-0.3118271827697754
1714858321280668000,4.85866796875,-1.5115981101989746,1.7071447372436523,-0.12425091862678528
1714858321290617300,4.868617431640625,-0.8128490447998047,1.2954368591308594,0.10894960165023804
1714858321300566800,4.87856689453125,-0.27494335174560547,1.1681222915649414,-0.08340254426002502
1714858321310516200,4.88851611328125,-0.3761329650878906,1.49360990524292,-0.2205568253993988
1714858321320465700,4.898465576171875,-0.8168106079101562,1.1127982139587402,-0.6733543872833252
1714858321330415000,4.9084150390625,-1.1086759567260742,1.4032840728759766,-0.1246899664402008
1714858321340364500,4.918364501953125,-0.7085103988647461,1.3471455574035645,0.3978590965270996
1714858321350314000,4.92831396484375,-0.6642007827758789,1.2174339294433594,0.2400214821100235
1714858321360263400,4.938263427734375,-0.9358510971069336,1.08976411819458,-0.1597861349582672
1714858321370212900,4.948212890625,-0.8450145721435547,0.9509239196777344,-0.5369982719421387
1714858321380162300,4.958162353515625,-0.5087423324584961,0.5696783065795898,-0.3473450839519501
1714858321390111500,4.968111572265625,-0.2343006134033203,0.6273760795593262,-0.49212729930877686
1714858321400061000,4.97806103515625,0.2894601821899414,0.4688539505004883,-0.6016942262649536
1714858321410010400,4.98801025390625,0.9612665176391602,0.5076718330383301,-0.7824960947036743
1714858321419959800,4.997959716796875,2.058441162109375,0.20273208618164062,-1.504699945449829
1714858321429909200,5.0079091796875,2.8261518478393555,0.21553277969360352,-0.9263345003128052
1714858321439858700,5.017858642578125,2.813566207885742,0.4436473846435547,0.1871216893196106
1714858321449808100,5.02780810546875,2.2978315353393555,0.34548234939575195,0.5312156677246094
1714858321459757600,5.037757568359375,1.2853994369506836,0.4558753967285156,0.3317698836326599
1714858321469707000,5.04770703125,0.18361473083496094,0.5149812698364258,0.18900996446609497
1714858321479656400,5.057656494140625,-0.7058248519897461,0.15383672714233398,0.055568039417266846
1714858321489606000,5.06760595703125,-1.3393645286560059,0.034813880920410156,0.027924060821533203
1714858321499555300,5.077555419921875,-2.487832546234131,0.6871066093444824,0.682702362537384
1714858321509504800,5.0875048828125,-2.227123737335205,0.06311511993408203,0.7412365674972534
1714858321519454200,5.0974541015625,-1.4871230125427246,-0.27547264099121094,0.1612895429134369
1714858321529403600,5.107403564453125,-1.357377529144287,-0.18807077407836914,-0.7917514443397522
1714858321539353000,5.11735302734375,-1.073847770690918,0.03494977951049805,-0.9071178436279297
1714858321549302500,5.127302490234375,-0.4942903518676758,-0.34448909759521484,-0.824925422668457
1714858321559252000,5.137251953125,0.28876495361328125,-0.3895754814147949,-0.6039631366729736
1714858321569201400,5.147201416015625,0.7248439788818359,-0.3105316162109375,-0.6255080103874207
1714858321579150600,5.157150634765625,1.008070945739746,-0.41510915756225586,-0.939665675163269
1714858321589100000,5.16710009765625,1.1058540344238281,-0.6187343597412109,-1.293971300125122
1714858321599049500,5.177049560546875,0.8264427185058594,-0.681856632232666,-1.7830989360809326
1714858321608999000,5.1869990234375,0.17827224731445312,-0.5935688018798828,-2.3128013610839844
1714858321618948400,5.1969482421875,-0.8464269638061523,-0.5298886299133301,-2.20322847366333
1714858321628897800,5.206897705078125,-1.3324313163757324,-0.5026183128356934,-1.1973977088928223
1714858321638847200,5.21684716796875,-1.200223445892334,-0.27391862869262695,0.07585513591766357
1714858321648796700,5.226796630859375,-0.29179859161376953,-0.05980348587036133,1.2468444108963013
1714858321658746000,5.23674609375,0.5154342651367188,0.035282135009765625,1.532192349433899
1714858321668695600,5.246695556640625,0.6972894668579102,0.010103702545166016,0.9077473878860474
1714858321678645000,5.25664501953125,0.22074222564697266,-0.12415599822998047,-0.0005994439125061035
1714858321688594400,5.266594482421875,-0.49533939361572266,-0.33419275283813477,-0.814213216304779
1714858321698543900,5.2765439453125,-1.238004207611084,-0.5544009208679199,-1.500900387763977
1714858321708493300,5.286493408203125,-1.6887884140014648,-0.6311492919921875,-2.134438991546631
1714858321718442800,5.29644287109375,-1.8001070022583008,-0.6732964515686035,-2.672062397003174
1714858321728392200,5.30639208984375,-1.5332865715026855,-0.5558891296386719,-2.523345947265625
1714858321738342000,5.316341796875,-0.1694021224975586,-0.36396360397338867,-0.8301478624343872
1714858321748291300,5.326291259765625,1.7553739547729492,-0.28490543365478516,1.4195990562438965
1714858321758240800,5.33624072265625,3.0547828674316406,-0.06594705581665039,2.598978281021118
1714858321768190200,5.346190185546875,3.2256832122802734,0.10355234146118164,2.4521636962890625
1714858321778139600,5.3561396484375,2.4023780822753906,-0.15494441986083984,1.4770309925079346
1714858321788089000,5.366089111328125,1.0314884185791016,-0.45037031173706055,0.1482163667678833
1714858321798038500,5.37603857421875,-0.20764732360839844,-0.5273876190185547,-1.0267202854156494
1714858321807988200,5.38598828125,-0.8842315673828125,-0.5738792419433594,-1.6753569841384888
1714858321817937700,5.395937744140625,-0.761474609375,-0.4085211753845215,-1.4841418266296387
1714858321827887000,5.40588720703125,-0.3455495834350586,-0.09778738021850586,-0.7276775240898132
1714858321837836500,5.41583642578125,-0.1368541717529297,-0.036443233489990234,0.24679917097091675
1714858321847786000,5.425785888671875,-0.19124507904052734,-0.02477121353149414,0.6797488331794739
1714858321857735400,5.4357353515625,-0.2640247344970703,0.0465245246887207,0.5344076156616211
1714858321867684900,5.445684814453125,-0.4222726821899414,0.039739131927490234,0.3977212905883789
1714858321877634600,5.455634521484375,-0.5521631240844727,-0.018347740173339844,0.5191599726676941
1714858321887584000,5.465583984375,-0.6879968643188477,-0.06818580627441406,0.6309450268745422
1714858321897533400,5.475533447265625,-0.8452882766723633,-0.1741046905517578,0.42210468649864197
1714858321907483000,5.48548291015625,-0.9149875640869141,-0.3152809143066406,0.29123443365097046
1714858321917432300,5.495432373046875,-0.7345409393310547,-0.36371660232543945,0.21126621961593628
1714858321927381800,5.5053818359375,-0.4462747573852539,-0.3086690902709961,0.15306872129440308
1714858321937331500,5.51533154296875,-0.1726388931274414,-0.29839324951171875,0.23697823286056519
1714858321947281000,5.525281005859375,0.11200428009033203,-0.2837648391723633,0.48743945360183716
1714858321957230300,5.535230224609375,0.18904495239257812,-0.24731826782226562,0.8290380239486694
1714858321967179800,5.5451796875,0.18778228759765625,-0.2792534828186035,0.9908424615859985
1714858321977129200,5.555129150390625,0.14198684692382812,-0.29830360412597656,1.0308334827423096
1714858321987078700,5.56507861328125,0.03672027587890625,-0.2596859931945801,1.0672450065612793
1714858321997028000,5.575028076171875,-0.09140968322753906,-0.3651857376098633,0.8666225671768188
1714858322006977800,5.584977783203125,-0.27732086181640625,-0.3632383346557617,0.7521438002586365
1714858322016927200,5.59492724609375,-0.5939426422119141,-0.37613964080810547,0.6038994193077087
1714858322026876700,5.604876708984375,-0.8891363143920898,-0.49838972091674805,0.34630298614501953
1714858322036826000,5.614826171875,-0.9390830993652344,-0.3901042938232422,0.28203874826431274
1714858322046775600,5.624775634765625,-0.7637042999267578,-0.18001127243041992,0.6433120369911194
1714858322056725000,5.63472509765625,-0.4249134063720703,-0.14164495468139648,1.0766527652740479
1714858322066674700,5.6446748046875,-0.04514789581298828,-0.19620370864868164,1.4382332563400269
1714858322076624100,5.6546240234375,0.2477102279663086,-0.21598386764526367,1.545094609260559
1714858322086573600,5.664573486328125,0.4505481719970703,-0.1315445899963379,1.6620912551879883
1714858322096523000,5.67452294921875,0.3939323425292969,-0.13967561721801758,1.6853039264678955
1714858322106472400,5.684472412109375,0.08443260192871094,-0.06234884262084961,1.4725067615509033
1714858322116422000,5.694421875,-0.12449932098388672,-0.11344623565673828,1.3261922597885132
1714858322126371300,5.704371337890625,-0.3638029098510742,-0.29351329803466797,1.1482269763946533
1714858322136321000,5.714321044921875,-0.5349178314208984,-0.4452085494995117,0.809533417224884
1714858322146270500,5.7242705078125,-0.884831428527832,-0.5581631660461426,0.3969356417655945
1714858322156220000,5.734219970703125,-0.9375267028808594,-0.47141361236572266,0.3862215280532837
1714858322166169300,5.74416943359375,-1.1904644966125488,-0.45331287384033203,0.7122397422790527
1714858322176118800,5.754118896484375,-1.4619030952453613,-0.2941579818725586,0.6143923401832581
1714858322186068200,5.764068115234375,-1.622359275817871,-0.119720458984375,0.6137644648551941
1714858322196018000,5.774017822265625,-1.5434355735778809,-0.19194698333740234,0.7214253544807434
1714858322205967000,5.783967041015625,-1.3071980476379395,-0.2365427017211914,0.8834310173988342
1714858322215916500,5.79391650390625,-0.9326591491699219,-0.25821590423583984,0.9504565000534058
1714858322225866000,5.803865966796875,-0.7727565765380859,-0.2821969985961914,0.8650106191635132
1714858322235815400,5.8138154296875,-0.6924962997436523,-0.15716552734375,0.7407296299934387
1714858322245764900,5.823764892578125,-0.7190485000610352,0.09936857223510742,0.7119419574737549
1714858322255714300,5.83371435546875,-1.0141973495483398,0.228118896484375,0.8438451290130615
1714858322265663700,5.843663818359375,-1.023829460144043,0.2738475799560547,0.9470846652984619
1714858322275613200,5.85361328125,-1.1034612655639648,0.1306161880493164,0.7286567687988281
1714858322285562600,5.863562744140625,-0.9725885391235352,0.12707281112670898,0.6191285252571106
1714858322295512000,5.873511962890625,-0.5443944931030273,0.28937292098999023,0.7880940437316895
1714858322305461500,5.88346142578125,0.27864742279052734,0.31629276275634766,1.1111903190612793
1714858322315411000,5.893410888671875,0.9165678024291992,0.04394245147705078,1.0443376302719116
1714858322325360400,5.9033603515625,0.8461694717407227,-0.05805015563964844,0.4891679286956787
1714858322335309800,5.913309814453125,0.45061779022216797,0.15800762176513672,0.06679829955101013
1714858322345259300,5.92325927734375,-0.08513069152832031,0.2649073600769043,0.03964412212371826
1714858322355208700,5.933208740234375,-0.452178955078125,0.21430015563964844,0.21226827800273895
1714858322365158100,5.943158203125,-0.6471633911132812,0.19028854370117188,0.28876328468322754
1714858322375107600,5.953107666015625,-0.6087255477905273,0.06961297988891602,0.10866397619247437
1714858322385057000,5.96305712890625,-0.4129819869995117,-0.2161574363708496,-0.41365987062454224
1714858322395006500,5.97300634765625,-0.054503440856933594,-0.11059904098510742,-0.7143308520317078
1714858322404955600,5.98295556640625,0.8980245590209961,0.1998310089111328,0.1123012900352478
1714858322414905000,5.992905029296875,1.5529232025146484,-0.046115875244140625,1.0075492858886719
1714858322424854500,6.0028544921875,1.6111907958984375,0.000020742416381835938,1.191892385482788
1714858322434804000,6.012803955078125,1.0204448699951172,0.2588975429534912,0.6093222498893738
1714858322444753400,6.02275341796875,-0.10645198822021484,0.09717416763305664,0.3426751494407654
1714858322454702800,6.032702880859375,-0.926030158996582,0.09637999534606934,0.2067699134349823
1714858322464652300,6.04265234375,-1.402669906616211,0.16973447799682617,-0.03521719574928284
1714858322474601700,6.052601806640625,-2.188687801361084,0.08829832077026367,-0.5336339473724365
1714858322484551200,6.06255126953125,-2.9184465408325195,-0.029869556427001953,-1.1388485431671143
1714858322494500600,6.07250048828125,-2.3886971473693848,-0.06356191635131836,-0.7559025287628174
1714858322504450000,6.082449951171875,-1.0959320068359375,0.029900312423706055,0.012607455253601074
1714858322514399500,6.0923994140625,-0.08501338958740234,-0.007790565490722656,0.5530140995979309
1714858322524349000,6.102348876953125,0.6334476470947266,-0.07825589179992676,0.69975346326828
1714858322534298400,6.11229833984375,1.1056947708129883,-0.16556763648986816,0.529350221157074
1714858322544247800,6.122247802734375,1.3099555969238281,-0.11899042129516602,0.20702674984931946
1714858322554197200,6.132197265625,0.9552583694458008,-0.14573287963867188,-0.09614324569702148
1714858322564146700,6.142146728515625,0.6668148040771484,-0.16054296493530273,-0.07028031349182129
1714858322574096100,6.15209619140625,1.194021224975586,-0.03438997268676758,0.2366701364517212
1714858322584045600,6.162045654296875,1.5234975814819336,0.03644967079162598,0.2355373501777649
1714858322593995000,6.1719951171875,1.4930734634399414,-0.007718801498413086,0.09786587953567505
1714858322603944200,6.181944091796875,1.7816009521484375,-0.030432701110839844,0.1010366678237915
1714858322613893600,6.1918935546875,2.2219467163085938,0.006530284881591797,0.15495461225509644
1714858322623843000,6.201843017578125,2.0213708877563477,-0.004779815673828125,0.1128886342048645
1714858322633792500,6.21179248046875,1.1847572326660156,0.12549185752868652,-0.2886444926261902
1714858322643742000,6.221741943359375,0.2322368621826172,0.17544984817504883,-0.3783133625984192
1714858322653691400,6.23169140625,-0.1447124481201172,0.1674344539642334,-0.07214623689651489
1714858322663640800,6.241640869140625,0.27741527557373047,0.21741986274719238,0.22411251068115234
1714858322673590300,6.25159033203125,0.8344411849975586,0.26862430572509766,0.13904929161071777
1714858322683539700,6.261539794921875,1.0447187423706055,0.1906435489654541,0.0912712812423706
1714858322693489200,6.2714892578125,0.6319313049316406,0.03172039985656738,-0.03466689586639404
1714858322703438600,6.2814384765625,-0.04565143585205078,-0.16773748397827148,-0.18562853336334229
1714858322713388000,6.291387939453125,-0.4110431671142578,-0.12819528579711914,-0.3343871235847473
1714858322723337500,6.30133740234375,-0.2788715362548828,-0.13045692443847656,-0.4312933683395386
1714858322733287000,6.311286865234375,0.05437660217285156,-0.15006399154663086,-0.10357719659805298
1714858322743236400,6.321236328125,0.6039934158325195,-0.0957188606262207,0.3719964623451233
1714858322753185800,6.331185791015625,0.6686716079711914,-0.07682394981384277,0.27747124433517456
1714858322763135200,6.34113525390625,0.3975706100463867,-0.18462824821472168,-0.32194191217422485
1714858322773084700,6.351084716796875,0.034587860107421875,-0.21193718910217285,-0.7149243354797363
1714858322783034000,6.3610341796875,0.1240854263305664,-0.19516897201538086,-0.8057044744491577
1714858322792983600,6.370983642578125,0.5995607376098633,-0.2885429859161377,-0.6334716081619263
1714858322802933000,6.38093310546875,1.0802249908447266,-0.3708784580230713,-0.35798314213752747
1714858322812882700,6.390882568359375,1.544473648071289,-0.43508124351501465,-0.42716431617736816
1714858322822832000,6.40083203125,1.8790369033813477,-0.4374394416809082,-0.17862555384635925
1714858322832781600,6.410781494140625,1.7200899124145508,-0.6163816452026367,0.2611556649208069
1714858322842731000,6.42073095703125,0.8933849334716797,-0.8868780136108398,0.48037201166152954
1714858322852680400,6.430680419921875,-0.12113666534423828,-0.7296836376190186,0.7344192862510681
1714858322862630000,6.4406298828125,-0.7554311752319336,-0.27475929260253906,0.6278054118156433
1714858322872579600,6.45057958984375,-1.58091402053833,-0.21242570877075195,0.2840428650379181
1714858322882529000,6.460529052734375,-2.250576972961426,-0.34816932678222656,-0.5149826407432556
1714858322892478500,6.470478515625,-2.380061626434326,-0.26708412170410156,-1.7708942890167236
1714858322902428000,6.480427978515625,-2.266002655029297,-0.0758199691772461,-2.611105442047119
1714858322912377300,6.49037744140625,-1.9289865493774414,0.19003820419311523,-2.241349697113037
1714858322922326800,6.500326904296875,-0.948704719543457,0.5258684158325195,-0.970501184463501
1714858322932276200,6.510276123046875,0.3805828094482422,0.4677925109863281,0.14017647504806519
1714858322942226000,6.520225830078125,0.9920310974121094,-0.16585397720336914,0.14095661044120789
1714858322952175400,6.53017529296875,1.0569591522216797,-0.5548477172851562,-0.4631427526473999
1714858322962124800,6.540124755859375,1.0629425048828125,-0.6048130989074707,-1.7042465209960938
1714858322972074200,6.55007421875,0.3027324676513672,-0.2071380615234375,-2.2386341094970703
1714858322982023700,6.560023681640625,-0.7270193099975586,-0.032642364501953125,-1.966291904449463
1714858322991973000,6.56997314453125,-1.7611274719238281,-0.25301408767700195,-1.8633508682250977
1714858323001922800,6.5799228515625,-2.4420204162597656,-0.4744400978088379,-2.2773842811584473
1714858323011872300,6.589872314453125,-2.571112632751465,0.06406259536743164,-2.0451228618621826
1714858323021821700,6.59982177734375,-1.9316058158874512,0.6167106628417969,-0.6866568326950073
1714858323031771100,6.609771240234375,-1.3002128601074219,0.5280475616455078,0.710197925567627
1714858323041720600,6.619720458984375,-0.8786807060241699,0.32961130142211914,1.2942602634429932
1714858323051670000,6.629669921875,-0.8650851249694824,0.17697715759277344,0.9672825336456299
1714858323061619500,6.639619384765625,-0.9908156394958496,0.3486809730529785,0.8182820081710815
1714858323071569200,6.649569091796875,-0.9568285942077637,0.6038708686828613,0.745891273021698
1714858323081518600,6.6595185546875,-1.222130298614502,0.6705923080444336,0.3197117745876312
1714858323091468000,6.669468017578125,-2.1687045097351074,0.604766845703125,0.08144810795783997
1714858323101417500,6.67941748046875,-2.4912571907043457,0.6822128295898438,0.3802310824394226
1714858323111367000,6.689366943359375,-1.9313955307006836,0.40425634384155273,0.9289029836654663
1714858323121316400,6.69931640625,-0.8530540466308594,0.11769485473632812,0.9445329308509827
1714858323131266000,6.70926611328125,0.5060024261474609,0.10774898529052734,0.027250945568084717
1714858323141215500,6.719215576171875,0.6976966857910156,0.2656846046447754,0.017931468784809113
1714858323151165000,6.7291650390625,0.5793790817260742,0.06131124496459961,-0.051191531121730804
1714858323161114400,6.7391142578125,0.3561868667602539,-0.05832195281982422,0.17648974061012268
1714858323171063800,6.749063720703125,0.8406190872192383,-0.280454158782959,-0.4214528203010559
1714858323181013200,6.75901318359375,1.6389493942260742,-0.3194618225097656,-1.036874771118164
1714858323190962700,6.768962646484375,2.0261192321777344,-0.32543087005615234,-1.4715288877487183
1714858323200912100,6.778912109375,1.5407209396362305,-0.2383441925048828,-1.5849076509475708
1714858323210861600,6.788861572265625,1.24603271484375,0.04905414581298828,-1.4016215801239014
1714858323220810800,6.798810791015625,1.104090690612793,-0.09550189971923828,-0.34746813774108887
1714858323230760200,6.80876025390625,1.5332050323486328,-0.14572930335998535,0.5474163293838501
1714858323240709600,6.818709716796875,1.602198600769043,-0.0314028263092041,0.7725828289985657
1714858323250659000,6.8286591796875,1.3214654922485352,0.07277679443359375,1.1658082008361816
1714858323260608500,6.8386083984375,1.0138988494873047,0.13054943084716797,1.5780348777770996
1714858323270558000,6.848557861328125,1.1365652084350586,0.23998522758483887,1.6434736251831055
1714858323280507400,6.85850732421875,1.2968130111694336,0.328629732131958,1.4640803337097168
1714858323290456800,6.868456787109375,1.2029390335083008,0.2218790054321289,1.055647611618042
1714858323300406300,6.87840625,1.2703237533569336,0.16901516914367676,0.6816924214363098
1714858323310355700,6.888355712890625,0.9396867752075195,0.03817033767700195,0.08209776878356934
1714858323320305200,6.89830517578125,0.22898101806640625,-0.18281102180480957,-0.25827646255493164
1714858323330254600,6.908254638671875,-0.25708580017089844,-0.40441465377807617,-0.467708945274353
1714858323340204000,6.9182041015625,-0.3913745880126953,-0.45398974418640137,-0.7427746057510376
1714858323350153500,6.928153564453125,-0.43297386169433594,-0.36351895332336426,-0.7275162935256958
1714858323360103000,6.93810302734375,-0.3902149200439453,-0.39894843101501465,-0.2907923460006714
1714858323370052400,6.94805224609375,-0.16099834442138672,-0.5391063690185547,0.5594421029090881
1714858323380001800,6.958001708984375,0.38620662689208984,-0.45329976081848145,1.335390567779541
1714858323389951200,6.967951171875,1.0384702682495117,-0.17301702499389648,1.1143708229064941
1714858323399900700,6.977900634765625,1.4305315017700195,0.051386356353759766,0.4906928539276123
1714858323409850000,6.98785009765625,1.4503965377807617,0.023252010345458984,0.26280778646469116
1714858323419799300,6.99779931640625,1.0213937759399414,-0.24721813201904297,0.6150016188621521
1714858323429748700,7.007748779296875,0.48590946197509766,-0.4774336814880371,0.6792922616004944
1714858323439698200,7.0176982421875,-0.13924694061279297,-0.4169731140136719,0.20737266540527344
1714858323449647600,7.027647705078125,-0.7365913391113281,-0.3567686080932617,-0.3883475065231323
1714858323459597000,7.03759716796875,-1.3899574279785156,-0.32322216033935547,-0.8093152046203613
1714858323469546500,7.04754638671875,-1.9260320663452148,-0.029395103454589844,-0.6685322523117065
1714858323479496000,7.057495849609375,-1.9546213150024414,0.4830322265625,0.1414666771888733
1714858323489445400,7.0674453125,-1.2437448501586914,0.8099155426025391,1.078413963317871
1714858323499394800,7.077394775390625,-0.5361089706420898,0.7420849800109863,1.474037766456604
1714858323509344300,7.08734423828125,-0.5050773620605469,0.38318681716918945,1.3559904098510742
1714858323519293700,7.097293701171875,-1.0002317428588867,0.05283212661743164,0.884543776512146
1714858323529243100,7.1072431640625,-1.4563260078430176,0.012217044830322266,0.35964640974998474
1714858323539192600,7.117192626953125,-1.4413542747497559,0.17207717895507812,-0.05013298988342285
1714858323549142000,7.12714208984375,-1.1868195533752441,0.42371225357055664,-0.12057390809059143
1714858323559091500,7.137091552734375,-1.114316463470459,0.5097670555114746,0.06984370946884155
1714858323569041000,7.147041015625,-1.2718253135681152,0.33039045333862305,0.21669869124889374
1714858323578990300,7.156990234375,-1.5733156204223633,-0.028185367584228516,0.03774663805961609
1714858323588939800,7.166939697265625,-1.941882610321045,-0.017548084259033203,-0.3984847366809845
1714858323598889200,7.17688916015625,-2.4349565505981445,0.06477499008178711,-0.9295741319656372
1714858323608838700,7.186838623046875,-2.8697543144226074,-0.1938481330871582,-1.749208927154541
1714858323618787800,7.196787841796875,-2.9094443321228027,-0.3362598419189453,-2.479811191558838
1714858323628737300,7.2067373046875,-2.6764602661132812,-0.05258321762084961,-2.445941686630249
1714858323638686700,7.216686767578125,-2.189169406890869,0.35196971893310547,-1.531592845916748
1714858323648636200,7.22663623046875,-1.4191699028015137,0.614565372467041,0.19553783535957336
1714858323658585600,7.236585693359375,-0.625391960144043,0.8759450912475586,2.4212679862976074
1714858323668535000,7.24653515625,-0.06034564971923828,0.9203686714172363,3.581109046936035
1714858323678484500,7.256484375,0.6227407455444336,0.8861026763916016,3.339160919189453
1714858323688434000,7.266433837890625,1.0819072723388672,0.8835315704345703,2.51747465133667
1714858323698383400,7.27638330078125,0.9124650955200195,0.5965156555175781,1.5854010581970215
1714858323708332800,7.286332763671875,0.4729776382446289,0.10518646240234375,0.42069393396377563
1714858323718282200,7.2962822265625,-0.15125656127929688,-0.15122032165527344,-0.4905166029930115
1714858323728231700,7.306231689453125,-0.44924068450927734,-0.24219274520874023,-1.0843298435211182
1714858323738181000,7.31618115234375,-0.33504486083984375,-0.2782630920410156,-1.508730173110962
1714858323748130600,7.326130615234375,0.11510467529296875,-0.17570257186889648,-1.5227851867675781
1714858323758080000,7.336080078125,0.8722333908081055,-0.18084955215454102,-1.1133904457092285
1714858323768029400,7.346029541015625,1.6686153411865234,-0.35382699966430664,-0.5455508232116699
1714858323777979000,7.355978759765625,2.245777130126953,-0.37105560302734375,0.14840811491012573
1714858323787928300,7.36592822265625,2.3024349212646484,-0.3374934196472168,0.6870433688163757
1714858323797877800,7.375877685546875,1.8484792709350586,-0.46057939529418945,0.6412321925163269
1714858323807827200,7.3858271484375,1.0841312408447266,-0.3903064727783203,0.3284042477607727
1714858323817776400,7.3957763671875,0.7169466018676758,-0.2576909065246582,-0.09735345840454102
1714858323827725800,7.405725830078125,0.5706253051757812,-0.4027581214904785,-0.5690845847129822
1714858323837675300,7.41567529296875,0.4832944869995117,-0.5250575542449951,-0.7601661682128906
1714858323847624700,7.425624755859375,0.5518865585327148,-0.5271048545837402,-0.7745083570480347
1714858323857574100,7.43557421875,0.8115682601928711,-0.4193546772003174,-0.7369364500045776
1714858323867523600,7.445523681640625,0.8569459915161133,-0.4011387825012207,-0.6263498067855835
1714858323877473000,7.45547314453125,0.3912620544433594,-0.8410735130310059,-0.6667076349258423
1714858323887422500,7.46542236328125,-0.012177467346191406,-0.8998901844024658,-0.6244018077850342
1714858323897372000,7.475371826171875,0.060952186584472656,-0.4607243537902832,-0.6121674180030823
1714858323907321300,7.4853212890625,0.6518735885620117,-0.06758642196655273,-0.4574393033981323
1714858323917270800,7.495270751953125,1.661041259765625,-0.21265673637390137,-0.21932363510131836
1714858323927220200,7.50522021484375,1.9829177856445312,-0.715827465057373,0.09199225902557373
1714858323937169700,7.515169677734375,1.3188562393188477,-1.0917181968688965,-0.11918330192565918
1714858323947119000,7.525119140625,0.27994251251220703,-0.9261338710784912,-0.5540921688079834
1714858323957068500,7.535068603515625,-0.40571022033691406,-0.599689245223999,-0.7977052927017212
1714858323967018000,7.54501806640625,-0.6983804702758789,-0.3382418155670166,-0.6504210233688354
1714858323976967400,7.554967529296875,-0.6045761108398438,-0.1743927001953125,-0.5524060726165771
1714858323986916900,7.564916748046875,-0.5379238128662109,-0.33742737770080566,-0.5133726596832275
1714858323996866300,7.5748662109375,-0.9509744644165039,-0.48293209075927734,-0.16205143928527832
1714858324006816000,7.58481591796875,-1.340240478515625,-0.32315993309020996,0.03726053237915039
1714858324016765400,7.594765380859375,-1.3702774047851562,0.14038705825805664,0.08662819862365723
1714858324026715000,7.60471484375,-1.157308578491211,0.5741255283355713,0.4840364456176758
1714858324036664300,7.614664306640625,-0.9023246765136719,0.8448507785797119,1.0974750518798828
1714858324046613800,7.62461376953125,-0.6301183700561523,0.934152364730835,1.4486664533615112
1714858324056563200,7.634563232421875,-0.2802133560180664,0.8017981052398682,1.5194953680038452
1714858324066512600,7.6445126953125,-0.4591484069824219,0.386340856552124,1.1518504619598389
1714858324076462300,7.65446240234375,-0.9879961013793945,0.09975981712341309,0.6229770183563232
1714858324086411800,7.664411865234375,-1.5378737449645996,0.24346089363098145,0.1485588550567627
1714858324096361200,7.674361328125,-1.9628195762634277,0.4335489273071289,-0.27544522285461426
1714858324106310700,7.684310546875,-2.054192543029785,0.5018436908721924,-0.2977118492126465
1714858324116260000,7.694260009765625,-1.704545497894287,0.5734844207763672,0.08943367004394531
1714858324126209500,7.70420947265625,-0.7879581451416016,0.5701699256896973,0.3712177276611328
1714858324136159200,7.7141591796875,0.2894020080566406,0.4419684410095215,0.4120957851409912
1714858324146108700,7.724108642578125,0.7710456848144531,0.35218358039855957,0.4635963439941406
1714858324156058000,7.73405810546875,0.8057613372802734,0.4139583110809326,0.5385451316833496
1714858324166007600,7.744007568359375,0.7507266998291016,0.5325765609741211,0.6097264289855957
1714858324175957000,7.75395703125,0.6952476501464844,0.48951220512390137,0.5790948867797852
1714858324185906400,7.763906494140625,0.4775381088256836,0.4288363456726074,0.5203742980957031
1714858324195856000,7.77385595703125,-0.03024578094482422,0.35866594314575195,0.2704427242279053
1714858324205805600,7.7838056640625,-0.20195960998535156,0.30325913429260254,-0.12942743301391602
1714858324215755000,7.793755126953125,0.45594120025634766,0.29596900939941406,-0.3294355869293213
1714858324225704400,7.803704345703125,1.2152652740478516,0.17410492897033691,-0.18348240852355957
1714858324235654000,7.81365380859375,1.4821758270263672,-0.016180038452148438,0.0483245849609375
1714858324245603300,7.823603271484375,1.5501766204833984,-0.024985313415527344,0.16000747680664062
1714858324255552800,7.833552734375,1.500234603881836,0.15318536758422852,0.12737751007080078
1714858324265502200,7.843502197265625,1.3745040893554688,0.22707748413085938,-0.004164695739746094
1714858324275452000,7.853451904296875,1.2674980163574219,0.22446894645690918,-0.12015938758850098
1714858324285401300,7.8634013671875,1.2737483978271484,0.12300467491149902,-0.4050123691558838
1714858324295350800,7.873350830078125,1.2353954315185547,0.06650543212890625,-0.6644668579101562
1714858324305300200,7.88330029296875,1.0330028533935547,0.18599462509155273,-0.7048420906066895
1714858324315249700,7.893249755859375,0.766871452331543,0.17487645149230957,-0.6486265659332275
1714858324325199000,7.90319921875,0.6579828262329102,0.11877274513244629,-0.4242851734161377
1714858324335148500,7.9131484375,0.5559720993041992,0.09039044380187988,-0.220963716506958
1714858324345097700,7.92309765625,0.38224124908447266,0.022665023803710938,-0.11203193664550781
1714858324355047200,7.933047119140625,-0.052779197692871094,-0.024276256561279297,-0.018688082695007324
1714858324364996600,7.94299658203125,-0.5019655227661133,-0.1257328987121582,-0.07275450229644775
1714858324374946000,7.952946044921875,-0.7246637344360352,-0.23050785064697266,-0.3225541114807129
1714858324384895500,7.9628955078125,-0.7009334564208984,-0.30414247512817383,-0.7073712348937988
1714858324394845000,7.972844970703125,-0.501164436340332,-0.3817176818847656,-0.9795109033584595
1714858324404794400,7.98279443359375,-0.45290088653564453,-0.4620838165283203,-0.8961033225059509
1714858324414743800,7.992743896484375,-0.7649555206298828,-0.48537540435791016,-0.5512950420379639
1714858324424693200,8.002693359375,-1.096480369567871,-0.334564208984375,-0.16544711589813232
1714858324434642700,8.012642578125,-1.2207207679748535,-0.09949445724487305,0.009245038032531738
1714858324444592000,8.022592041015624,-0.9180335998535156,0.05474662780761719,0.07633954286575317
1714858324454541600,8.03254150390625,-0.43383312225341797,0.05388784408569336,0.2717469334602356
1714858324464491000,8.042490966796874,-0.05987739562988281,-0.10550165176391602,0.37447673082351685
1714858324474440400,8.0524404296875,0.12134265899658203,-0.15729475021362305,0.3010413646697998
1714858324484390000,8.062389892578125,0.2034435272216797,-0.10245418548583984,0.27349579334259033
1714858324494339300,8.07233935546875,0.12626266479492188,-0.09787464141845703,0.1992473006248474
1714858324504288800,8.082288818359375,-0.023885726928710938,-0.12468814849853516,0.2333172857761383
1714858324514238200,8.09223828125,-0.08539772033691406,-0.2760324478149414,0.12245768308639526
1714858324524187600,8.102187744140625,-0.06863975524902344,-0.47310781478881836,-0.0871509313583374
1714858324534137000,8.11213720703125,-0.2376842498779297,-0.6510257720947266,-0.3657587766647339
1714858324544086300,8.122086181640626,-0.29736900329589844,-0.7309675216674805,-0.6549015641212463
1714858324554035700,8.13203564453125,-0.416015625,-0.7021918296813965,-0.8441575765609741
1714858324563985200,8.141985107421876,-0.7188835144042969,-0.6775918006896973,-0.9521051049232483
1714858324573934600,8.1519345703125,-1.2024750709533691,-0.48795604705810547,-0.7555921077728271
1714858324583884000,8.161884033203124,-1.45692777633667,-0.3180675506591797,-0.5059057474136353
1714858324593833500,8.17183349609375,-1.6359310150146484,-0.31012964248657227,-0.3133026957511902
1714858324603783000,8.181782958984375,-1.8881101608276367,-0.31467342376708984,-0.089496910572052
1714858324613732400,8.191732421875,-2.376671314239502,-0.32096242904663086,-0.04569500684738159
1714858324623681800,8.201681884765625,-2.687039375305176,-0.1838216781616211,-0.16676855087280273
1714858324633631200,8.21163134765625,-2.443265438079834,0.10307168960571289,-0.25055819749832153
1714858324643580700,8.22158056640625,-1.9280271530151367,0.5158820152282715,0.0715186595916748
1714858324653530000,8.231530029296875,-1.7097554206848145,0.7732648849487305,0.8447005748748779
1714858324663479600,8.2414794921875,-1.9020538330078125,0.5956077575683594,1.389703392982483
1714858324673429000,8.251428955078126,-2.2855405807495117,0.0938720703125,1.2288883924484253
1714858324683378400,8.26137841796875,-3.0156049728393555,-0.22586727142333984,0.884806215763092
1714858324693328000,8.271327880859374,-3.6674246788024902,-0.4226393699645996,0.13591085374355316
1714858324703277300,8.28127734375,-3.218020439147949,-0.7422435283660889,-2.0096566677093506
1714858324713226800,8.291226806640625,-2.031019687652588,-0.12715411186218262,-4.192256927490234
1714858324723176200,8.30117626953125,-1.3925857543945312,0.12807106971740723,-4.633388519287109
1714858324733125600,8.311125732421875,-1.3106794357299805,-0.585604190826416,-0.9672409296035767
1714858324743074800,8.32107470703125,-0.17138957977294922,-1.669677972793579,3.6114702224731445
1714858324753024300,8.331024169921875,2.754117965698242,-1.2791643142700195,4.6570210456848145
1714858324762973700,8.3409736328125,4.695524215698242,-0.02426886558532715,2.816545248031616
1714858324772923100,8.350923095703125,5.358205795288086,0.22158360481262207,1.6567634344100952
1714858324782872600,8.36087255859375,5.567951202392578,-0.008495569229125977,1.2193570137023926
1714858324792822000,8.370822021484376,5.326727867126465,-0.3526252508163452,0.6684422492980957
1714858324802771500,8.380771484375,4.760679244995117,-0.5303585529327393,-0.2134227156639099
1714858324812721000,8.390720947265624,3.666685104370117,-0.37347710132598877,-0.994196355342865
1714858324822670300,8.40067041015625,2.5216054916381836,0.3494666814804077,-0.6899181008338928
1714858324832619800,8.410619873046874,0.9307146072387695,0.31166768074035645,-0.4117757976055145
1714858324842569200,8.4205693359375,-0.5278453826904297,0.22672998905181885,0.060948699712753296
1714858324852518700,8.4305185546875,-0.8765106201171875,0.5307403206825256,0.6876353025436401
1714858324862468000,8.440468017578125,0.11081218719482422,0.9485967755317688,1.4550275802612305
1714858324872417500,8.45041748046875,2.1629695892333984,1.2872288227081299,1.9464688301086426
1714858324882367000,8.460366943359375,3.820535659790039,1.5357577800750732,2.0881118774414062
1714858324892316400,8.47031640625,3.7093753814697266,1.5777969360351562,2.1210691928863525
1714858324902265900,8.480265869140625,2.288267135620117,1.2683472633361816,2.045736074447632
1714858324912215300,8.49021533203125,1.399043083190918,0.7376973032951355,1.6549307107925415
1714858324922164700,8.500164794921876,1.5500679016113281,0.7424126863479614,1.087733507156372
1714858324932114200,8.5101142578125,0.9603900909423828,0.7660839557647705,0.8269127607345581
1714858324942063400,8.5200634765625,0.4628486633300781,0.5257371068000793,0.242970809340477
1714858324952012800,8.5300126953125,0.8744583129882812,0.06300094723701477,-0.6622563600540161
1714858324961962200,8.539962158203124,2.261357307434082,-0.3933778405189514,-1.3542839288711548
1714858324971911700,8.54991162109375,3.496786117553711,-0.6225409507751465,-1.604438304901123
1714858324981861000,8.559861083984375,4.192071914672852,-0.9864144921302795,-1.9577993154525757
1714858324991810600,8.569810546875,3.1856489181518555,-1.4908639192581177,-2.4441335201263428
1714858325001760000,8.579760009765625,0.2602558135986328,-1.6978929042816162,-2.829878091812134
1714858325011709400,8.58970947265625,-1.2459449768066406,-1.2948546409606934,-3.2070505619049072
1714858325021659000,8.599658935546875,-1.9814395904541016,-0.8495417833328247,-3.9277701377868652
1714858325031608300,8.6096083984375,-1.9863519668579102,-0.4968886375427246,-4.2421722412109375
1714858325041557800,8.619557861328126,-0.7792673110961914,0.12596797943115234,-4.0871405601501465
1714858325051507200,8.629507080078126,0.25859642028808594,0.29239392280578613,-3.632991075515747
1714858325061456600,8.63945654296875,0.536534309387207,-0.22873401641845703,-2.6818416118621826
1714858325071406000,8.649406005859374,1.405146598815918,-1.0066889524459839,-0.8487120866775513
1714858325081355500,8.65935546875,3.0533933639526367,-1.6098589897155762,1.8448247909545898
1714858325091305000,8.669304931640625,3.7718305587768555,-2.1341142654418945,4.92600154876709
1714858325101254400,8.67925439453125,3.3481225967407227,-2.3001232147216797,6.8071746826171875
1714858325111203800,8.689203857421875,3.2118396759033203,-1.6097674369812012,5.386726379394531
1714858325121153300,8.6991533203125,3.1222410202026367,-0.9968986511230469,2.0707669258117676
1714858325131102700,8.709102783203125,1.7659435272216797,-1.1097145080566406,0.3337364196777344
1714858325141052000,8.719052001953125,0.12378501892089844,-1.8472521305084229,0.10002946853637695
1714858325151001300,8.72900146484375,-1.7216153144836426,-2.745572805404663,0.7581347823143005
1714858325160950800,8.73895068359375,-4.067173957824707,-3.166895866394043,1.9418292045593262
1714858325170900200,8.748900146484376,-6.022887229919434,-2.9285807609558105,2.6568198204040527
1714858325180849700,8.758849609375,-6.753084182739258,-2.0622572898864746,1.9002540111541748
1714858325190799000,8.768799072265624,-6.551809310913086,-1.216285228729248,0.2639693021774292
1714858325200748500,8.77874853515625,-6.109964370727539,-0.8832464218139648,-1.3748365640640259
1714858325210698000,8.788697998046874,-5.845699787139893,-1.146967887878418,-2.4795613288879395
1714858325220647400,8.7986474609375,-6.207375526428223,-1.5108671188354492,-2.6730260848999023
1714858325230596900,8.808596923828125,-6.929116249084473,-1.464693546295166,-1.7580598592758179
1714858325240546300,8.81854638671875,-7.13273811340332,-1.2105317115783691,-0.6461726427078247
1714858325250495700,8.828495849609375,-5.961514949798584,-1.1238584518432617,-0.022845029830932617
1714858325260445200,8.838445068359375,-3.724996566772461,-1.4171743392944336,0.41534435749053955
1714858325270394600,8.84839453125,-1.3105740547180176,-1.6674668788909912,0.36108267307281494
1714858325280344000,8.858343994140625,1.734971046447754,-1.2836074829101562,0.06868720054626465
1714858325290293500,8.86829345703125,4.348567962646484,-0.48560190200805664,0.38936442136764526
1714858325300243000,8.878242919921876,3.8171615600585938,0.5857729911804199,0.7823102474212646
1714858325310192400,8.8881923828125,0.6933746337890625,1.4222850799560547,1.4142367839813232
1714858325320141800,8.898141845703124,-1.373746395111084,1.572129726409912,1.6372004747390747
1714858325330091000,8.908091064453124,-3.045318603515625,1.7683067321777344,1.309948444366455
1714858325340040400,8.91804052734375,-3.136502265930176,1.5405917167663574,1.1708688735961914
1714858325349990000,8.927989990234375,-2.2634572982788086,0.8721866607666016,1.2165124416351318
1714858325359939300,8.937939208984375,-1.222733497619629,0.3974900245666504,0.6565347909927368
1714858325369888800,8.947888671875,-0.5954828262329102,0.1894364356994629,-0.0663912296295166
1714858325379838200,8.957838134765625,0.6162605285644531,-0.09438753128051758,-1.2142789363861084
1714858325389787600,8.96778759765625,1.6616859436035156,-0.6291332244873047,-2.263099193572998
1714858325399737000,8.977737060546875,2.1626710891723633,-0.8429365158081055,-2.224172830581665
1714858325409686500,8.9876865234375,2.260249137878418,-0.5668511390686035,-1.434027910232544
1714858325419636000,8.997635986328126,2.896426200866699,0.011420249938964844,-0.41149377822875977
1714858325429585400,9.00758544921875,3.217654228210449,0.5769016742706299,0.70408034324646
1714858325439534800,9.017534912109374,2.994731903076172,0.8123443126678467,1.2846696376800537
1714858325449484300,9.027484375,3.0575733184814453,0.8157777786254883,1.400130033493042
1714858325459433700,9.037433837890624,2.5230541229248047,0.5756921768188477,1.299651026725769
1714858325469383200,9.047383056640625,1.987680435180664,0.1547861099243164,0.317946195602417
1714858325479332600,9.05733251953125,1.797541618347168,0.007817506790161133,-0.8531270027160645
1714858325489282000,9.067281982421875,2.4264907836914062,0.6512513160705566,-1.3331882953643799
1714858325499231500,9.0772314453125,2.332657814025879,0.6709239482879639,-0.9509103298187256
1714858325509181000,9.087180908203125,1.6857805252075195,-0.17518019676208496,-1.4206364154815674
1714858325519130400,9.09713037109375,1.6188812255859375,-0.8566839694976807,-2.3903932571411133
1714858325529079800,9.107079833984375,0.9672279357910156,-1.0975589752197266,-2.6337125301361084
1714858325539029200,9.117029296875,0.03473663330078125,-0.868156909942627,-1.9392073154449463
1714858325548979000,9.12697900390625,-1.1725473403930664,-0.4773526191711426,-0.7892992496490479
1714858325558928400,9.136928466796874,-2.0211544036865234,-0.006576061248779297,0.13907098770141602
1714858325568877800,9.1468779296875,-1.667820930480957,0.378023624420166,0.14277195930480957
1714858325578827300,9.1568271484375,-0.5042715072631836,0.46155309677124023,-0.5725898742675781
1714858325588776700,9.166776611328125,1.0436248779296875,0.13734817504882812,-1.294945478439331
1714858325598726100,9.17672607421875,2.083791732788086,-0.23421764373779297,-1.7249977588653564
1714858325608675800,9.18667578125,1.844050407409668,-0.5762839317321777,-1.482487440109253
1714858325618625300,9.196625244140625,0.7880039215087891,-0.8734745979309082,-0.7732794284820557
1714858325628574700,9.20657470703125,-0.35313987731933594,-0.9033312797546387,-0.10757970809936523
1714858325638524200,9.216524169921875,-1.4488582611083984,-0.6664266586303711,0.15325212478637695
1714858325648473600,9.2264736328125,-2.1555562019348145,-0.41794586181640625,0.1000204086303711
1714858325658423000,9.236423095703126,-2.121316432952881,-0.3433570861816406,-0.22071194648742676
1714858325668372500,9.24637255859375,-1.5757083892822266,-0.3140602111816406,-0.29638874530792236
1714858325678322200,9.256322265625,-0.8297543525695801,-0.19875717163085938,0.1665714979171753
1714858325688271600,9.266271728515624,-0.14587974548339844,-0.1107015609741211,0.6094298362731934
1714858325698221000,9.276220947265625,0.13125133514404297,-0.16582727432250977,0.6147719621658325
1714858325708170500,9.28617041015625,-0.0009775161743164062,-0.3821883201599121,0.34487617015838623
1714858325718120000,9.296119873046875,-0.36606884002685547,-0.5552520751953125,0.19590723514556885
1714858325728069400,9.3060693359375,-0.742978572845459,-0.4180121421813965,0.3523890972137451
1714858325738019000,9.31601904296875,-1.1685943603515625,-0.10133552551269531,0.6973095536231995
1714858325747968500,9.325968505859375,-1.7598719596862793,0.20143842697143555,1.0258376598358154
1714858325757918000,9.33591796875,-2.0740489959716797,0.42458581924438477,1.2237201929092407
1714858325767867400,9.345867431640626,-1.4378108978271484,0.6176309585571289,1.237097144126892
1714858325777816800,9.35581689453125,-0.22025585174560547,0.6623964309692383,1.0676169395446777
1714858325787766300,9.365766357421874,0.7114458084106445,0.5704364776611328,1.0417158603668213
1714858325797715700,9.3757158203125,0.9323911666870117,0.46288585662841797,1.3720430135726929
1714858325807665200,9.3856650390625,0.48149776458740234,0.3938455581665039,1.5999939441680908
1714858325817614600,9.395614501953125,-0.48705577850341797,0.4648427963256836,1.5873770713806152
1714858325827564000,9.40556396484375,-1.415196418762207,0.4689154624938965,1.2241179943084717
1714858325837513500,9.415513427734375,-1.9411826133728027,0.17822742462158203,0.35734307765960693
1714858325847463000,9.425462890625,-1.666501522064209,-0.20125961303710938,-0.5889898538589478
1714858325857412400,9.435412353515625,-0.5691795349121094,-0.2858119010925293,-1.1152658462524414
1714858325867361800,9.44536181640625,0.27216339111328125,-0.10464048385620117,-0.8350025415420532
1714858325877311200,9.455311279296875,0.48065948486328125,0.22658443450927734,0.11742401123046875
1714858325887260700,9.4652607421875,0.2928314208984375,0.5059194564819336,0.8399254083633423
1714858325897210000,9.475210205078126,0.0049381256103515625,0.5251154899597168,0.9061368107795715
1714858325907159300,9.4851591796875,-0.32730960845947266,0.4406704902648926,0.6298584938049316
1714858325917108700,9.495108642578124,-0.6448879241943359,0.2960686683654785,0.3956186771392822
1714858325927058200,9.50505810546875,-0.7015142440795898,0.04250621795654297,0.13351964950561523
1714858325937007600,9.515007568359374,-0.6172733306884766,-0.20992183685302734,-0.24797534942626953
1714858325946957000,9.52495703125,-0.6891365051269531,-0.3422670364379883,-0.5385581254959106
1714858325956906500,9.534906494140625,-0.5500774383544922,-0.292266845703125,-0.6575292348861694
1714858325966856000,9.54485595703125,-0.03692913055419922,-0.2289137840270996,-0.6609715223312378
1714858325976805400,9.554805419921875,0.3128223419189453,-0.22653627395629883,-0.38405144214630127
1714858325986754800,9.5647548828125,0.19612407684326172,-0.1627054214477539,0.02969527244567871
1714858325996704300,9.574704345703125,-0.31485652923583984,-0.04703378677368164,0.2663078308105469
1714858326006653700,9.58465380859375,-0.8836164474487305,-0.03425264358520508,0.1737957000732422
1714858326016603100,9.59460302734375,-1.1977133750915527,-0.011791706085205078,-0.006326794624328613
1714858326026552600,9.604552490234376,-0.7855100631713867,0.07717132568359375,-0.19771337509155273
1714858326036502000,9.614501953125,0.07796573638916016,0.098419189453125,-0.18666791915893555
1714858326046451500,9.624451416015624,0.7615079879760742,-0.029726028442382812,-0.044219255447387695
1714858326056401000,9.63440087890625,1.0577316284179688,-0.08034420013427734,0.17708325386047363
1714858326066350300,9.644350341796875,1.0963373184204102,-0.006122112274169922,0.2995086908340454
1714858326076299800,9.6542998046875,1.0495996475219727,0.11264801025390625,0.3072110414505005
1714858326086249200,9.664249267578125,0.9177331924438477,0.1906270980834961,0.31823766231536865
1714858326096198700,9.67419873046875,0.6712207794189453,0.1620626449584961,0.24905407428741455
1714858326106147800,9.68414794921875,0.36439037322998047,0.13171815872192383,0.1137235164642334
1714858326116097300,9.69409716796875,0.1524209976196289,-0.015815258026123047,-0.30965256690979004
1714858326126046700,9.704046630859375,0.0632791519165039,-0.19353294372558594,-0.5622535943984985
1714858326135996200,9.71399609375,0.0921163558959961,-0.24786043167114258,-0.41693568229675293
1714858326145945600,9.723945556640626,0.18236827850341797,-0.18439149856567383,-0.12373757362365723
1714858326155895000,9.73389501953125,0.17216014862060547,-0.014302253723144531,0.12557339668273926
1714858326165844500,9.743844482421874,0.2247304916381836,0.09240007400512695,0.08325576782226562
1714858326175794000,9.7537939453125,0.30241966247558594,0.12287044525146484,-0.09815335273742676
1714858326185743400,9.763743408203124,0.3674964904785156,0.17076396942138672,-0.1629389524459839
1714858326195692800,9.77369287109375,0.42081451416015625,0.13939237594604492,-0.21484613418579102
1714858326205642200,9.783642333984375,0.6588926315307617,-0.01962566375732422,-0.2906733751296997
1714858326215591700,9.793591796875,1.1013870239257812,-0.11109066009521484,-0.2919100522994995
1714858326225541000,9.803541015625,1.2760810852050781,-0.03934812545776367,-0.16362547874450684
1714858326235490600,9.813490478515625,1.0307025909423828,-0.0038094520568847656,-0.06455183029174805
1714858326245440000,9.82343994140625,0.45970821380615234,0.02337169647216797,-0.005170226097106934
1714858326255389400,9.833389404296875,-0.11482620239257812,0.09539175033569336,-0.004014492034912109
1714858326265339000,9.8433388671875,-0.44202613830566406,0.09565496444702148,-0.13197290897369385
1714858326275288300,9.853288330078126,-0.5945091247558594,0.05783414840698242,-0.2565286159515381
1714858326285237800,9.86323779296875,-0.6729097366333008,0.07232332229614258,-0.2588158845901489
1714858326295187200,9.873187255859374,-0.6484231948852539,0.09434032440185547,-0.21366584300994873
1714858326305136400,9.883136474609374,-0.520930290222168,0.16039037704467773,-0.17175018787384033
1714858326315085800,9.8930859375,-0.5199193954467773,0.2321014404296875,-0.07573544979095459
1714858326325035300,9.90303515625,-0.7029819488525391,0.3637356758117676,0.12367665767669678
1714858326334984700,9.912984619140625,-1.0276412963867188,0.5203614234924316,0.3735015392303467
1714858326344934100,9.92293408203125,-1.3946757316589355,0.6448078155517578,0.6708861589431763
1714858326354883600,9.932883544921875,-1.5377955436706543,0.6932449340820312,0.8382038474082947
1714858326364833000,9.9428330078125,-1.3618788719177246,0.6607809066772461,0.7888672351837158
1714858326374782500,9.952782470703125,-1.1723394393920898,0.6029338836669922,0.6033968329429626
1714858326384732000,9.96273193359375,-1.0732479095458984,0.4555931091308594,0.3042415380477905
1714858326394681300,9.972681396484376,-0.7434320449829102,0.2832479476928711,0.05024755001068115
1714858326404630800,9.982630859375,-0.08136940002441406,0.11391687393188477,-0.2079792022705078
1714858326414580200,9.992580322265624,0.6619987487792969,0.04474687576293945,-0.25037646293640137
1714858326424529700,10.00252978515625,1.2271690368652344,0.08688497543334961,-0.14920926094055176
1714858326434479000,10.01247900390625,1.3832550048828125,0.2645835876464844,0.1352006196975708
1714858326444428500,10.022428466796875,1.2798900604248047,0.4300041198730469,0.346248984336853
1714858326454378000,10.0323779296875,0.9399118423461914,0.5290446281433105,0.42169690132141113
1714858326464327400,10.042327392578125,0.6853694915771484,0.6058664321899414,0.5108145475387573
1714858326474276900,10.05227685546875,0.9828310012817383,0.5684113502502441,0.572076678276062
1714858326484226300,10.062226318359375,1.3073959350585938,0.3494453430175781,0.5769922733306885
1714858326494175500,10.072175537109375,1.2114105224609375,0.09164142608642578,0.5692148208618164
1714858326504125000,10.082125,0.8524761199951172,-0.08959150314331055,0.3811357021331787
1714858326514074400,10.092074462890626,0.6352195739746094,-0.2311859130859375,0.061955928802490234
1714858326524023800,10.10202392578125,0.5062217712402344,-0.3664717674255371,-0.23785662651062012
1714858326533973200,10.11197314453125,0.2307605743408203,-0.4566037654876709,-0.41905415058135986
1714858326543922700,10.121922607421874,-0.15439319610595703,-0.499556303024292,-0.6152878999710083
1714858326553872100,10.1318720703125,-0.36402416229248047,-0.5177319049835205,-0.8787513971328735
1714858326563821600,10.141821533203125,-0.6718845367431641,-0.4862403869628906,-0.8487530946731567
1714858326573771000,10.15177099609375,-0.9887323379516602,-0.4007115364074707,-0.6670939922332764
1714858326583720400,10.161720458984375,-0.9660606384277344,-0.3016843795776367,-0.49098825454711914
1714858326593670000,10.171669921875,-0.6704044342041016,-0.19478082656860352,-0.18240225315093994
1714858326603619300,10.181619384765625,-0.23359966278076172,-0.11212015151977539,0.15355169773101807
1714858326613568800,10.19156884765625,0.10760688781738281,-0.11016845703125,0.2809021472930908
1714858326623518200,10.201518310546875,0.36878108978271484,-0.21580076217651367,0.10670197010040283
1714858326633467600,10.211467529296876,0.5178518295288086,-0.3941478729248047,-0.1992102861404419
1714858326643417000,10.2214169921875,0.4457244873046875,-0.5520188808441162,-0.4205995798110962
1714858326653366500,10.231366455078126,0.20969009399414062,-0.6944434642791748,-0.5375475883483887
1714858326663316000,10.24131591796875,-0.1867532730102539,-0.6571996212005615,-0.4737287759780884
1714858326673265400,10.251265380859374,-0.4968414306640625,-0.4285392761230469,-0.26283764839172363
1714858326683214800,10.26121484375,-0.7170944213867188,-0.14347410202026367,0.031623005867004395
1714858326693164000,10.2711640625,-0.814183235168457,0.014451026916503906,0.24535775184631348
1714858326703113500,10.281113525390625,-0.989593505859375,0.07758426666259766,0.38482773303985596
1714858326713063000,10.29106298828125,-1.1824827194213867,0.10226917266845703,0.3809950351715088
1714858326723012400,10.301012451171875,-1.3562965393066406,0.13024139404296875,0.32561206817626953
1714858326732961800,10.3109619140625,-1.3687963485717773,0.1446208953857422,0.26274967193603516
1714858326742911200,10.3209111328125,-1.2629823684692383,0.08803081512451172,0.2039327621459961
1714858326752860700,10.330860595703125,-0.9760217666625977,-0.0274810791015625,0.07568919658660889
1714858326762810000,10.34081005859375,-0.3006887435913086,-0.12167215347290039,-0.10241472721099854
1714858326772759600,10.350759521484376,0.33115482330322266,-0.11165285110473633,-0.18716907501220703
1714858326782709000,10.360708984375,0.6548433303833008,-0.013733386993408203,-0.1376502513885498
1714858326792658400,10.370658447265624,0.8535194396972656,0.13019084930419922,-0.039324045181274414
1714858326802607900,10.38060791015625,0.9707136154174805,0.24741601943969727,0.07372879981994629
1714858326812557300,10.390557373046875,0.8296680450439453,0.2727022171020508,0.10961174964904785
1714858326822506800,10.4005068359375,0.4243316650390625,0.2205643653869629,0.06080198287963867
1714858326832456200,10.410456298828125,0.05410575866699219,0.13437652587890625,-0.052662014961242676
1714858326842405600,10.420405517578125,-0.15315914154052734,0.07927560806274414,-0.11852455139160156
1714858326852355000,10.43035498046875,-0.19851112365722656,0.032405853271484375,-0.2190108299255371
1714858326862304500,10.440304443359375,-0.048897743225097656,-0.030861854553222656,-0.3895885944366455
1714858326872254000,10.45025390625,0.1238565444946289,-0.08379554748535156,-0.5126157999038696
1714858326882203400,10.460203369140626,0.27739906311035156,-0.1185140609741211,-0.5551291704177856
1714858326892152600,10.470152587890626,0.37415027618408203,-0.1166234016418457,-0.5488424301147461
1714858326902102000,10.48010205078125,0.35700416564941406,-0.09711122512817383,-0.4784083366394043
1714858326912051500,10.490051513671874,0.24463748931884766,-0.04449272155761719,-0.34514713287353516
1714858326922001000,10.5000009765625,0.21356868743896484,0.03139829635620117,-0.13371682167053223
1714858326931950300,10.509950439453124,0.27352428436279297,0.09607839584350586,0.04539215564727783
1714858326941899800,10.519899658203125,0.2815685272216797,0.1822671890258789,0.18915772438049316
1714858326951849200,10.52984912109375,0.18068885803222656,0.22790050506591797,0.25611305236816406
1714858326961798700,10.539798583984375,0.09021854400634766,0.19581222534179688,0.2135148048400879
1714858326971748000,10.549748046875,0.014758110046386719,0.10592365264892578,0.12461662292480469
1714858326981697500,10.559697509765625,-0.022199630737304688,-0.0456080436706543,-0.05343747138977051
1714858326991647000,10.56964697265625,-0.011242866516113281,-0.22061872482299805,-0.311795711517334
1714858327001596400,10.579596435546875,0.043300628662109375,-0.35372352600097656,-0.5125930309295654
1714858327011545900,10.5895458984375,0.02202129364013672,-0.3501138687133789,-0.5377432107925415
1714858327021495300,10.599495361328126,0.01569843292236328,-0.29172801971435547,-0.4855891466140747
1714858327031444700,10.60944482421875,0.04350852966308594,-0.2270822525024414,-0.40060508251190186
1714858327041394200,10.619394287109374,0.024408340454101562,-0.204132080078125,-0.25808680057525635
1714858327051343600,10.629343505859374,-0.051158905029296875,-0.21299314498901367,-0.11590540409088135
1714858327061293000,10.63929296875,-0.20738792419433594,-0.18118858337402344,0.0486600399017334
1714858327071242500,10.649242431640625,-0.34918212890625,-0.12152385711669922,0.1499544382095337
1714858327081192000,10.65919189453125,-0.46290016174316406,-0.10388803482055664,0.1509648561477661
1714858327091141000,10.66914111328125,-0.42484569549560547,-0.11742687225341797,0.06225383281707764
1714858327101090600,10.679090576171875,-0.2922077178955078,-0.14767742156982422,-0.05932199954986572
1714858327111040000,10.6890400390625,-0.2510871887207031,-0.22295236587524414,-0.16579937934875488
1714858327120989400,10.698989501953125,-0.24880218505859375,-0.28540515899658203,-0.22219598293304443
1714858327130939000,10.70893896484375,-0.3140287399291992,-0.30620765686035156,-0.27112579345703125
1714858327140888300,10.718888427734376,-0.4949359893798828,-0.30392026901245117,-0.30494236946105957
1714858327150837800,10.728837646484376,-0.6970043182373047,-0.3390316963195801,-0.3423299789428711
1714858327160787200,10.738787109375,-0.7678375244140625,-0.35386037826538086,-0.3962874412536621
1714858327170736600,10.748736572265624,-0.8505878448486328,-0.34012937545776367,-0.4298880100250244
1714858327180686000,10.75868603515625,-1.0169267654418945,-0.33173608779907227,-0.4937371015548706
1714858327190635500,10.768635498046875,-0.9901514053344727,-0.2709488868713379,-0.534834623336792
1714858327200585000,10.7785849609375,-0.49991321563720703,-0.16211652755737305,-0.4048765301704407
1714858327210534400,10.788534423828125,-0.14025306701660156,0.02450084686279297,-0.10374897718429565
1714858327220483800,10.79848388671875,-0.1389026641845703,0.2303781509399414,0.18642044067382812
1714858327230433300,10.808433349609375,-0.09908103942871094,0.39388465881347656,0.2528781592845917
1714858327240382700,10.8183828125,0.030603408813476562,0.40714168548583984,0.22281792759895325
1714858327250332200,10.828332275390625,0.2823638916015625,0.14467620849609375,0.0894671082496643
1714858327260281600,10.838281494140626,0.7583541870117188,-0.15492868423461914,-0.1067304015159607
1714858327270231000,10.84823095703125,1.337996482849121,-0.22948837280273438,-0.1896282434463501
1714858327280180500,10.858180419921876,1.8210067749023438,-0.07275819778442383,-0.2804979979991913
1714858327290129700,10.868129638671874,1.9217119216918945,0.024964332580566406,-0.23331692814826965
1714858327300079000,10.8780791015625,1.5111141204833984,0.03243732452392578,-0.09732288122177124
1714858327310028500,10.888028564453125,0.9658002853393555,-0.01275491714477539,-0.027930259704589844
1714858327319978000,10.89797802734375,0.7906904220581055,0.036188602447509766,-0.04945564270019531
1714858327329927400,10.907927490234375,1.075453758239746,0.25149059295654297,0.01792961359024048
1714858327339876900,10.917876953125,1.1511154174804688,0.5554237365722656,0.3140481114387512
1714858327349826300,10.927826416015625,0.23307037353515625,0.497251033782959,0.9933554530143738
1714858327359775700,10.937775634765625,-0.17849349975585938,0.35065174102783203,1.3881971836090088
1714858327369725200,10.94772509765625,1.051706314086914,0.47716474533081055,0.8079730272293091
1714858327379674600,10.957674560546875,1.533625602722168,0.2915329933166504,0.08956044912338257
1714858327389624000,10.9676240234375,1.2328262329101562,0.17202138900756836,-0.16856706142425537
1714858327399573500,10.977573486328126,1.0773077011108398,0.08963251113891602,-0.3043749928474426
1714858327409523000,10.98752294921875,1.3776273727416992,-0.06229591369628906,-0.3759496212005615
1714858327419472400,10.997472412109374,1.536381721496582,-0.14471197128295898,-0.056131958961486816
1714858327429421800,11.007421875,1.1425590515136719,0.07065963745117188,0.7774522304534912
1714858327439371300,11.017371337890625,0.3390159606933594,0.5395107269287109,1.5817697048187256
1714858327449320700,11.02732080078125,-0.36866092681884766,1.072009563446045,2.0324320793151855
1714858327459270100,11.037270263671875,-1.1393766403198242,1.3308963775634766,2.0865395069122314
1714858327469219600,11.047219482421875,-1.70145845413208,1.2129535675048828,1.7487642765045166
1714858327479169000,11.0571689453125,-1.6292128562927246,0.724827766418457,0.9467387795448303
1714858327489118200,11.0671181640625,-1.3292975425720215,0.1125173568725586,0.2016996145248413
1714858327499067600,11.077067626953125,-0.8592958450317383,-0.2650413513183594,-0.12031185626983643
1714858327509017000,11.08701708984375,-1.0061883926391602,-0.7126836776733398,-0.5763605833053589
1714858327518966500,11.096966552734376,-2.0108656883239746,-1.1277356147766113,-1.1513524055480957
1714858327528916000,11.106916015625,-2.622401237487793,-1.085174560546875,-1.4708282947540283
1714858327538865400,11.116865478515624,-2.101314067840576,-0.6492323875427246,-1.3969032764434814
1714858327548814800,11.12681494140625,-1.8924736976623535,-0.02658700942993164,-0.5520862340927124
1714858327558764300,11.136764404296875,-2.134941577911377,0.49344348907470703,0.7959413528442383
1714858327568713700,11.146713623046875,-2.1899380683898926,0.8478426933288574,1.8624498844146729
1714858327578663200,11.1566630859375,-2.1589884757995605,1.0425829887390137,2.063969850540161
1714858327588612600,11.166612548828125,-1.5673294067382812,1.1195402145385742,1.7662138938903809
1714858327598562000,11.17656201171875,-0.6198482513427734,1.1002120971679688,1.676915168762207
1714858327608511500,11.186511474609375,-0.21890926361083984,1.021240234375,1.6885087490081787
1714858327618461000,11.1964609375,-0.4258298873901367,1.0200409889221191,1.7117609977722168
1714858327628410400,11.206410400390626,-0.8822131156921387,0.8427443504333496,1.5203771591186523
1714858327638359800,11.21635986328125,-1.2513632774353027,-0.13776206970214844,0.7626420259475708
1714858327648309200,11.226309326171876,-1.351151466369629,-2.329380512237549,-1.3170685768127441
1714858327658258700,11.2362587890625,-0.5829963684082031,-3.374393939971924,-3.1282079219818115
1714858327668208000,11.2462080078125,1.01934814453125,-2.725224256515503,-2.893167495727539
1714858327678157300,11.2561572265625,1.5259904861450195,-1.5349993705749512,-1.928558111190796
1714858327688106800,11.266106689453125,0.9249000549316406,-0.5336971282958984,-1.0187716484069824
1714858327698056200,11.27605615234375,-0.05203533172607422,0.18893146514892578,0.13042449951171875
1714858327708005600,11.286005615234375,-0.4835968017578125,0.7675991058349609,1.3092005252838135
1714858327717955000,11.295955078125,0.10271167755126953,1.2768526077270508,1.834789514541626
1714858327727904500,11.305904541015625,1.560079574584961,1.5442991256713867,1.7958396673202515
1714858327737854000,11.31585400390625,3.152620315551758,1.388533592224121,1.665578842163086
1714858327747803400,11.325803466796875,3.912989616394043,0.7234897613525391,1.3416272401809692
1714858327757752800,11.3357529296875,3.533506393432617,-0.10225296020507812,0.8006649017333984
1714858327767702300,11.345702392578126,2.3777990341186523,-0.4929981231689453,0.022612571716308594
1714858327777651700,11.355651611328126,0.5413379669189453,-0.4814009666442871,-0.4602186679840088
1714858327787601200,11.36560107421875,-1.3098692893981934,-0.2214360237121582,-0.5314099788665771
1714858327797550600,11.375550537109374,-2.1624836921691895,-0.1630229949951172,-0.8157086372375488
1714858327807500000,11.3855,-1.6265935897827148,-0.40644407272338867,-1.1015408039093018
1714858327817449500,11.395449462890625,-0.9262433052062988,-1.1820852756500244,-1.3771028518676758
1714858327827399000,11.40539892578125,-0.2884807586669922,-1.361124038696289,-1.234175205230713
1714858327837348400,11.415348388671875,0.8540163040161133,-0.9975461959838867,-0.036932945251464844
1714858327847297800,11.4252978515625,1.9642658233642578,-0.4384951591491699,1.2850371599197388
1714858327857247200,11.435247314453125,2.988056182861328,-0.16283750534057617,1.0437684059143066
1714858327867196700,11.44519677734375,1.8349180221557617,0.3384089469909668,1.0862829685211182
1714858327877145900,11.455145751953125,0.10583877563476562,0.5964136123657227,0.9202240705490112
1714858327887095300,11.46509521484375,-0.7922124862670898,0.3965487480163574,0.43676185607910156
1714858327897044700,11.475044677734376,-1.264747142791748,-0.025274276733398438,-0.20644474029541016
1714858327906994200,11.484994140625,-1.2575736045837402,-0.3886551856994629,-0.7564949989318848
1714858327916943600,11.494943603515624,-0.7569208145141602,-0.6424379348754883,-0.9459652900695801
1714858327926893000,11.50489306640625,-0.22919940948486328,-0.8252038955688477,-0.7948756217956543
1714858327936842500,11.514842529296875,-0.24280738830566406,-0.7934646606445312,-0.35556769371032715
1714858327946792000,11.5247919921875,-1.0729832649230957,-0.5853524208068848,0.17698287963867188
1714858327956741400,11.534741455078125,-1.2245078086853027,-0.4846158027648926,0.3642575740814209
1714858327966690800,11.54469091796875,-2.3152036666870117,0.0864095687866211,0.7588082551956177
1714858327976640300,11.55464013671875,-2.180389881134033,0.40680885314941406,0.8937845230102539
1714858327986589700,11.564589599609375,-1.4844188690185547,0.6481828689575195,0.8632128238677979
1714858327996539100,11.5745390625,-1.3830938339233398,0.5581316947937012,0.8198510408401489
1714858328006488600,11.584488525390626,-0.8460054397583008,0.2694573402404785,0.5058225393295288
1714858328016438000,11.59443798828125,-0.24446868896484375,-0.15210390090942383,0.14095091819763184
1714858328026387500,11.604387451171876,-0.3693380355834961,-0.38518476486206055,0.08539581298828125
1714858328036337000,11.6143369140625,-1.0177998542785645,0.08375072479248047,0.4415632486343384
1714858328046286300,11.624286376953124,-1.5567388534545898,0.48368406295776367,0.5957238674163818
1714858328056235800,11.63423583984375,-1.918135643005371,0.3304753303527832,0.28916168212890625
1714858328066185200,11.644185302734375,-1.932363510131836,-0.10900592803955078,-0.3536297082901001
1714858328076134400,11.654134521484375,-1.6003732681274414,-0.20205974578857422,-0.7168159484863281
1714858328086083800,11.664083740234375,-0.5138769149780273,-0.0724496841430664,-0.7481571435928345
1714858328096033300,11.674033203125,0.6087551116943359,-0.25362062454223633,-0.5418018102645874
1714858328105982700,11.683982666015625,1.355337142944336,-0.4989662170410156,-0.22587370872497559
1714858328115932200,11.69393212890625,1.7062654495239258,-0.4490509033203125,0.024851560592651367
1714858328125881600,11.703881591796875,1.5771398544311523,-0.271909236907959,0.04117393493652344
1714858328135831000,11.7138310546875,1.5558090209960938,-0.2300734519958496,-0.19416499137878418
1714858328145780500,11.723780517578126,1.397796630859375,-0.44983625411987305,-0.38551759719848633
1714858328155730000,11.73372998046875,1.182973861694336,-0.5599460601806641,-0.43508970737457275
1714858328165679400,11.743679443359374,0.9403495788574219,-0.4111475944519043,-0.3377256393432617
1714858328175628800,11.75362890625,0.9029455184936523,-0.23493337631225586,-0.24249428510665894
1714858328185578200,11.763578125,0.969334602355957,-0.23444032669067383,-0.20553022623062134
1714858328195527700,11.773527587890625,0.7325019836425781,-0.3210582733154297,-0.19634950160980225
1714858328205477000,11.78347705078125,0.17667865753173828,-0.33811378479003906,-0.3278138041496277
1714858328215426600,11.793426513671875,-0.4238767623901367,-0.3186497688293457,-0.5544576644897461
1714858328225376000,11.8033759765625,-0.5599470138549805,-0.3412346839904785,-0.7015430927276611
1714858328235325400,11.813325439453125,-0.542820930480957,-0.28261804580688477,-0.5270929336547852
1714858328245275000,11.82327490234375,-0.13686466217041016,-0.10394954681396484,-0.1355830430984497
1714858328255224300,11.833224365234376,0.48863983154296875,0.0639963150024414,0.2157236635684967
1714858328265173800,11.843173828125,0.6046934127807617,0.025981426239013672,0.30224287509918213
1714858328275123000,11.853123046875,0.3320331573486328,-0.07936620712280273,0.08362162113189697
1714858328285072400,11.863072265625,-0.24464893341064453,-0.16683387756347656,-0.23046112060546875
1714858328295021800,11.873021728515624,-0.6593647003173828,-0.17420387268066406,-0.46858713030815125
1714858328304971300,11.88297119140625,-0.5313558578491211,-0.12390375137329102,-0.4546646773815155
1714858328314920700,11.892920654296875,0.03430747985839844,-0.13281679153442383,-0.31831157207489014
1714858328324870100,11.9028701171875,0.3072843551635742,-0.20338916778564453,-0.33311277627944946
1714858328334819600,11.912819580078125,0.23105525970458984,-0.19725561141967773,-0.4814126193523407
1714858328344769000,11.92276904296875,0.08249664306640625,-0.1368265151977539,-0.4591722786426544
1714858328354718500,11.932718505859375,-0.1059579849243164,-0.07270193099975586,-0.27568212151527405
1714858328364668000,11.94266796875,-0.2158651351928711,0.07822656631469727,-0.10705395042896271
1714858328374617300,11.952617431640626,-0.037116050720214844,0.12921476364135742,-0.09294015169143677
1714858328384566800,11.96256689453125,0.21145343780517578,0.04895591735839844,-0.16496115922927856
1714858328394516200,11.97251611328125,0.4306926727294922,-0.021368980407714844,-0.030868738889694214
1714858328404465700,11.982465576171874,1.0374765396118164,-0.07916975021362305,0.43182259798049927
1714858328414415000,11.9924150390625,1.3253250122070312,-0.33699464797973633,0.5992321968078613
1714858328424364500,12.002364501953124,0.9502220153808594,-0.5825872421264648,-0.12883137166500092
1714858328434314000,12.01231396484375,0.4902191162109375,-0.8323922157287598,-1.08942449092865
1714858328444263400,12.022263427734375,0.10115432739257812,-1.039891242980957,-1.8075523376464844
1714858328454212900,12.032212890625,0.21611309051513672,-0.9733524322509766,-2.248060703277588
1714858328464162300,12.042162353515625,0.7200641632080078,-0.9024190902709961,-2.309887647628784
1714858328474111500,12.052111572265625,1.2131404876708984,-0.7550349235534668,-1.9474008083343506
1714858328484061000,12.06206103515625,1.4308767318725586,-0.4607863426208496,-1.1751644611358643
1714858328494010400,12.07201025390625,1.4709911346435547,-0.28090620040893555,-0.33340001106262207
1714858328503959800,12.081959716796876,1.5205354690551758,-0.2824678421020508,0.3017575740814209
1714858328513909200,12.0919091796875,1.7661657333374023,-0.37493085861206055,0.614624559879303
1714858328523858700,12.101858642578126,1.4480581283569336,-0.6490726470947266,0.2759871780872345
1714858328533808000,12.11180810546875,0.5646371841430664,-1.0653088092803955,-0.6236656308174133
1714858328543757600,12.121757568359374,-0.22271442413330078,-1.3100509643554688,-1.4048595428466797
1714858328553707000,12.13170703125,-0.4673309326171875,-1.4180192947387695,-1.8372138738632202
1714858328563656400,12.141656494140625,-0.23705482482910156,-1.5336034297943115,-1.9937025308609009
1714858328573606000,12.15160595703125,0.22040176391601562,-1.631650686264038,-1.8046449422836304
1714858328583555300,12.161555419921875,0.33265209197998047,-1.6288282871246338,-1.5229092836380005
1714858328593504800,12.1715048828125,0.13396835327148438,-1.4966905117034912,-1.3105405569076538
1714858328603454200,12.1814541015625,-0.21750450134277344,-1.3257970809936523,-0.9842455983161926
1714858328613403600,12.191403564453125,-0.6643686294555664,-0.9819362163543701,-0.6280524134635925
1714858328623353000,12.20135302734375,-0.8954906463623047,-0.4711928367614746,-0.5051236748695374
1714858328633302500,12.211302490234376,-0.7722434997558594,-0.014894485473632812,-0.36170655488967896
1714858328643252000,12.221251953125,-0.13685989379882812,0.34711790084838867,-0.051304206252098083
1714858328653201400,12.231201416015624,0.4857339859008789,0.5974674224853516,0.18804439902305603
1714858328663150600,12.241150634765624,0.550868034362793,0.8943495750427246,0.19099578261375427
1714858328673100000,12.25110009765625,0.36421680450439453,1.311868667602539,0.28602486848831177
1714858328683049500,12.261049560546875,0.07779598236083984,1.7138113975524902,0.5421092510223389
1714858328692999000,12.2709990234375,-0.17548274993896484,2.0401062965393066,0.8288715481758118
1714858328702948400,12.2809482421875,-0.1849813461303711,2.2851815223693848,1.0993480682373047
1714858328712897800,12.290897705078125,-0.030658721923828125,2.522395610809326,1.4003771543502808
1714858328722847200,12.30084716796875,0.12638473510742188,2.7295455932617188,1.5588425397872925
1714858328732796700,12.310796630859375,-0.17708110809326172,2.801577091217041,1.5324125289916992
1714858328742746000,12.32074609375,-0.579279899597168,2.805455207824707,1.370298147201538
1714858328752695600,12.330695556640626,-0.633575439453125,2.755340099334717,1.0357728004455566
1714858328762645000,12.34064501953125,-0.5810174942016602,2.5005698204040527,0.5480383634567261
1714858328772594400,12.350594482421876,-0.5082969665527344,2.147315502166748,0.02334648370742798
1714858328782544000,12.3605439453125,-0.4107627868652344,1.8821864128112793,-0.31879815459251404
1714858328792493300,12.370493408203124,-0.2783985137939453,1.7089362144470215,-0.4522068500518799
1714858328802442800,12.38044287109375,-0.07718086242675781,1.6024184226989746,-0.25043609738349915
1714858328812392200,12.39039208984375,0.3132438659667969,1.507951259613037,0.21408891677856445
1714858328822341600,12.400341552734375,0.7176418304443359,1.3455758094787598,0.5773640275001526
1714858328832291000,12.410291015625,0.9715967178344727,1.1822309494018555,0.5682284235954285
1714858328842240500,12.420240478515625,0.9388856887817383,0.9383268356323242,0.2848554849624634
1714858328852190000,12.43018994140625,0.7493362426757812,0.6856002807617188,0.04790137708187103
1714858328862139100,12.44013916015625,0.5741872787475586,0.40693044662475586,-0.09759761393070221
1714858328872088600,12.450088623046875,0.2590503692626953,0.1433091163635254,-0.2540696859359741
1714858328882038000,12.4600380859375,0.07973480224609375,0.06953763961791992,-0.2770538330078125
1714858328891987500,12.469987548828126,0.2691679000854492,0.10524415969848633,0.0228462815284729
1714858328901937000,12.47993701171875,0.48248958587646484,0.006305694580078125,0.3560241162776947
