time,seconds_elapsed,z,y,x
1714858316624300500,0.202300537109375,0.04767054691910744,0.06058686971664429,-0.1464737504720688
1714858316634254300,0.21225439453125,0.013582111336290836,0.05632581561803818,-0.026098959147930145
1714858316644208400,0.22220849609375,-0.03861580789089203,0.013715269044041634,0.07723161578178406
1714858316654163000,0.232162841796875,-0.07590003311634064,-0.012916321866214275,0.13369058072566986
1714858316664117500,0.242117431640625,-0.09400951862335205,-0.02143843099474907,0.12516847252845764
1714858316674069000,0.252069091796875,-0.0822916179895401,-0.048070020973682404,0.04740423336625099
1714858316684018400,0.262018310546875,-0.04181159660220146,-0.0906805694103241,-0.06764423847198486
1714858316693968000,0.2719677734375,-0.0023968431632965803,-0.1418132185935974,-0.17949692904949188
1714858316703917300,0.281917236328125,0.019973693415522575,-0.19614167511463165,-0.24234747886657715
1714858316713866800,0.29186669921875,0.03488738462328911,-0.15885743498802185,-0.22210747003555298
1714858316723816000,0.30181591796875,0.04980107396841049,-0.07257108390331268,-0.1368863731622696
1714858316733765400,0.311765380859375,0.04554001986980438,-0.051265813410282135,-0.04953476041555405
1714858316743714800,0.32171484375,0.02210422046482563,-0.0810931921005249,0.006924213841557503
1714858316753664300,0.331664306640625,-0.001331579522229731,-0.09174583107233047,0.03142527863383293
1714858316763613400,0.341613525390625,-0.0141147430986166,-0.055526867508888245,0.011185267940163612
1714858316773563000,0.35156298828125,-0.0002663159102667123,-0.02569948509335518,-0.04953476041555405
1714858316783512300,0.36151220703125,0.027430538088083267,-0.026764748618006706,-0.12410321086645126
1714858316793461800,0.371461669921875,0.05725792050361633,-0.04061317816376686,-0.18695376813411713
1714858316803411000,0.381410888671875,0.07856319099664688,-0.0949416235089302,-0.21997694671154022
1714858316813360400,0.3913603515625,0.07962846010923386,-0.1663142889738083,-0.21571588516235352
1714858316823309800,0.401309814453125,0.05832318589091301,-0.1705753356218338,-0.18482324481010437
1714858316833259300,0.41125927734375,0.02636527456343174,-0.09174583107233047,-0.14966954290866852
1714858316843208400,0.42120849609375,0.014647374860942364,0.05206476151943207,-0.13369058072566986
1714858316853158000,0.431157958984375,0.015712639316916466,0.18309219181537628,-0.13369058072566986
1714858316863107300,0.441107421875,-0.006657897960394621,0.1916143000125885,-0.11558110266923904
1714858316873056800,0.451056884765625,-0.052464235574007034,0.09147951751947403,-0.0516652874648571
1714858316883006000,0.461005859375,-0.0918789878487587,-0.02463422156870365,0.04420844092965126
1714858316892955400,0.470955322265625,-0.11105373501777649,-0.11624689400196075,0.15606112778186798
1714858316902904800,0.48090478515625,-0.12170637398958206,-0.17909744381904602,0.2498043179512024
1714858316912854300,0.490854248046875,-0.12277163565158844,-0.21957746148109436,0.29028433561325073
1714858316922803500,0.500803466796875,-0.11744531989097595,-0.21851220726966858,0.2743053734302521
1714858316932753000,0.5107529296875,-0.11424952745437622,-0.14500901103019714,0.23276010155677795
1714858316942702300,0.520702392578125,-0.10040109604597092,-0.02996053919196129,0.18056218326091766
1714858316952651800,0.53065185546875,-0.09614004194736481,0.0648479238152504,0.12410321086645126
1714858316962601000,0.54060107421875,-0.10785794258117676,0.14261217415332794,0.061252661049366
1714858316972550400,0.55055029296875,-0.105727419257164,0.24274694919586182,0.009054740890860558
1714858316982499800,0.560499755859375,-0.06631266325712204,0.35353437066078186,-0.022903168573975563
1714858316992449300,0.57044921875,0.00612526573240757,0.40040597319602966,-0.05273054912686348
1714858317002398700,0.580398681640625,0.12117373943328857,0.36844804883003235,-0.1038632020354271
1714858317012348400,0.590348388671875,0.22130851447582245,0.29281434416770935,-0.15606112778186798
1714858317022297900,0.6002978515625,0.27244117856025696,0.16711322963237762,-0.18908429145812988
1714858317032247300,0.610247314453125,0.2745717167854309,0.02756369672715664,-0.19121482968330383
1714858317042196700,0.62019677734375,0.25965800881385803,-0.043808966875076294,-0.18056218326091766
1714858317052146200,0.630146240234375,0.25326642394065857,-0.02569948509335518,-0.17630113661289215
1714858317062095600,0.640095703125,0.2798980176448822,0.05632581561803818,-0.19867166876792908
1714858317072045300,0.65004541015625,0.32463908195495605,0.16178691387176514,-0.23382537066936493
1714858317081994800,0.659994873046875,0.3544664680957794,0.21824589371681213,-0.24554327130317688
1714858317091944200,0.669944091796875,0.34274858236312866,0.22996379435062408,-0.2263685166835785
1714858317101893600,0.6798935546875,0.27244117856025696,0.24594274163246155,-0.17949692904949188
1714858317111843000,0.689843017578125,0.17763271927833557,0.25553011894226074,-0.11132004857063293
1714858317121792500,0.69979248046875,0.09880319982767105,0.186287984251976,-0.021837905049324036
1714858317131742000,0.709741943359375,0.05299686640501022,0.024367906153202057,0.08788424730300903
1714858317141691600,0.719691650390625,0.030626330524683,-0.1652490198612213,0.23915168642997742
1714858317151641000,0.72964111328125,0.0007989477599039674,-0.20999009907245636,0.42663809657096863
1714858317161590500,0.739590576171875,-0.05033370852470398,-0.0906805694103241,0.6098634600639343
1714858317171540000,0.7495400390625,-0.105727419257164,0.005193160381168127,0.7611308693885803
1714858317181489400,0.759489501953125,-0.13662005960941315,0.01904158666729927,0.8985498547554016
1714858317191438800,0.76943896484375,-0.1387505829334259,0.04673844203352928,1.0530130863189697
1714858317201388500,0.779388427734375,-0.1344895362854004,0.21398483216762543,1.2117373943328857
1714858317211338000,0.789337890625,-0.105727419257164,0.308793306350708,1.2586089372634888
1714858317221287400,0.799287353515625,-0.06524740159511566,0.5314334034919739,1.2074763774871826
1714858317231236900,0.80923681640625,-0.029028434306383133,0.8637956380844116,1.119059443473816
1714858317241186300,0.819186279296875,0.002929474925622344,1.0118672847747803,1.0178594589233398
1714858317251135700,0.8291357421875,0.012516847811639309,0.8574040532112122,0.9155941009521484
1714858317261085200,0.839085205078125,-0.017310533672571182,0.4930838942527771,0.8431561589241028
1714858317271035000,0.849034912109375,-0.09614004194736481,0.17137429118156433,0.8346340656280518
1714858317280984300,0.858984375,-0.20266640186309814,-0.016112113371491432,0.8602004051208496
1714858317290933800,0.868933837890625,-0.3134538233280182,-0.048070020973682404,0.8516782522201538
1714858317300883200,0.87888330078125,-0.3837612271308899,0.04034686088562012,0.7739140391349792
1714858317310832600,0.88883251953125,-0.3784348964691162,0.0456731803715229,0.5821665525436401
1714858317320782000,0.898781982421875,-0.29214856028556824,-0.15033532679080963,0.27110961079597473
1714858317330731500,0.9087314453125,-0.13235901296138763,-0.4198470413684845,-0.050600022077560425
1714858317340681000,0.918680908203125,0.07643266767263412,-0.5838976502418518,-0.2743053734302521
1714858317350630400,0.92863037109375,0.30120328068733215,-0.6946850419044495,-0.38296228647232056
1714858317360579800,0.938579833984375,0.4641886353492737,-0.6254429221153259,-0.4245075583457947
1714858317370529300,0.948529296875,0.5238434076309204,-0.31971225142478943,-0.4522044062614441
1714858317380478500,0.958478515625,0.4929507374763489,0.10958899557590485,-0.5161202549934387
1714858317390428000,0.968427978515625,0.4205128252506256,0.46219125390052795,-0.6332992315292358
1714858317400377300,0.97837744140625,0.3874896466732025,0.5868270993232727,-0.7515435218811035
1714858317410326800,0.988326904296875,0.42903491854667664,0.5250418186187744,-0.8048067092895508
1714858317420276200,0.998276123046875,0.5057339072227478,0.45686495304107666,-0.7930887937545776
1714858317430225700,1.0082255859375,0.550475001335144,0.43449440598487854,-0.7440866827964783
1714858317440175000,1.018175048828125,0.5451486706733704,0.48988813161849976,-0.6897581815719604
1714858317450124500,1.02812451171875,0.4876244366168976,0.6368945240974426,-0.6641919016838074
1714858317460074000,1.038073974609375,0.36724963784217834,0.8488819599151611,-0.6791055798530579
1714858317470023400,1.0480234375,0.22024326026439667,0.9937578439712524,-0.6950845122337341
1714858317479972900,1.057972900390625,0.08921582996845245,0.9490167498588562,-0.6897581815719604
1714858317489922300,1.06792236328125,-0.036485280841588974,0.6986798048019409,-0.6812360882759094
1714858317499871700,1.077871826171875,-0.15153375267982483,0.40040597319602966,-0.6684529185295105
1714858317509821200,1.0878212890625,-0.22290641069412231,0.12876373529434204,-0.6471476554870605
1714858317519770600,1.0977705078125,-0.237820103764534,-0.12689952552318573,-0.6034718751907349
1714858317529720000,1.107719970703125,-0.20692746341228485,-0.33675646781921387,-0.5597960352897644
1714858317539669500,1.11766943359375,-0.1525990217924118,-0.47417548298835754,-0.5491434335708618
1714858317549619000,1.127618896484375,-0.06631266325712204,-0.5018723607063293,-0.5917539596557617
1714858317559568400,1.137568359375,0.04554001986980438,-0.5146554708480835,-0.65353924036026
1714858317569517800,1.147517822265625,0.1478053331375122,-0.5306344628334045,-0.6290381550788879
1714858317579467000,1.157467041015625,0.21598219871520996,-0.42623862624168396,-0.4809665381908417
1714858317589416400,1.16741650390625,0.2671148478984833,-0.34634384512901306,-0.22210747003555298
1714858317599366000,1.177365966796875,0.3075948655605316,-0.40812912583351135,0.08255793154239655
1714858317609315300,1.1873154296875,0.3118559420108795,-0.5508744716644287,0.3339601457118988
1714858317619264800,1.1972646484375,0.22024326026439667,-0.5316997170448303,0.4277033507823944
1714858317629214200,1.207214111328125,0.10626004636287689,-0.39321544766426086,0.3861580789089203
1714858317639163600,1.21716357421875,0.05725792050361633,-0.18868482112884521,0.2913496196269989
1714858317649113000,1.227113037109375,0.0732368752360344,0.03502054139971733,0.17097482085227966
1714858317659062500,1.2370625,0.10839057713747025,0.2246374636888504,0.03994738683104515
1714858317669012000,1.247011962890625,0.1339569091796875,0.33009856939315796,-0.03249054029583931
1714858317678961400,1.25696142578125,0.148870587348938,0.3695133328437805,-0.006924213841557503
1714858317688910800,1.266910888671875,0.10945583879947662,0.2715090811252594,0.06764423847198486
1714858317698860300,1.2768603515625,-0.00985368900001049,0.07230477035045624,0.15606112778186798
1714858317708809700,1.286809814453125,-0.12809795141220093,-0.1663142889738083,0.2167811542749405
1714858317718759200,1.29675927734375,-0.19414429366588593,-0.44967442750930786,0.22849905490875244
1714858317728708600,1.30670849609375,-0.2186453640460968,-0.6829671263694763,0.2263685166835785
1714858317738658000,1.316657958984375,-0.2090579867362976,-0.7394261360168457,0.24554327130317688
1714858317748607500,1.326607421875,-0.20160114765167236,-0.6957502961158752,0.29348012804985046
1714858317758557000,1.336556884765625,-0.18881797790527344,-0.6595313549041748,0.3627222776412964
1714858317768506400,1.34650634765625,-0.16538217663764954,-0.6765755414962769,0.42024651169776917
1714858317778455600,1.35645556640625,-0.16857796907424927,-0.6914892792701721,0.44474756717681885
1714858317788405000,1.366405029296875,-0.17496955394744873,-0.5934849977493286,0.4287686049938202
1714858317798354400,1.3763544921875,-0.17816534638404846,-0.4102596640586853,0.343547523021698
1714858317808303900,1.386303955078125,-0.1994706094264984,-0.23023010790348053,0.22423799335956573
1714858317818253300,1.39625341796875,-0.23142851889133453,-0.13116058707237244,0.12303794920444489
1714858317828202800,1.40620263671875,-0.20692746341228485,-0.1279647946357727,0.046338967978954315
1714858317838152200,1.416152099609375,-0.1387505829334259,-0.16205322742462158,0.006924213841557503
1714858317848101600,1.4261015625,-0.06950845569372177,-0.22383852303028107,0.0037284228019416332
1714858317858051000,1.436051025390625,-0.017310533672571182,-0.26751431822776794,0.030360013246536255
1714858317868000500,1.44600048828125,0.008255792781710625,-0.2707101106643677,0.0708400309085846
1714858317877950000,1.455949951171875,0.010386320762336254,-0.26218801736831665,0.10918952524662018
1714858317887899400,1.4658994140625,-0.001331579522229731,-0.23662169277668,0.1645832359790802
1714858317897848800,1.475848876953125,-0.03009369783103466,-0.21105535328388214,0.21358536183834076
1714858317907798300,1.48579833984375,-0.06418213248252869,-0.1940111368894577,0.22423799335956573
1714858317917747700,1.495747802734375,-0.08974846452474594,-0.18122798204421997,0.18482324481010437
1714858317927697200,1.505697265625,-0.09614004194736481,-0.16311849653720856,0.11984215676784515
1714858317937646600,1.515646484375,-0.08974846452474594,-0.13861742615699768,0.06657897680997849
1714858317947596000,1.525595947265625,-0.08868319541215897,-0.12157320976257324,0.037816859781742096
1714858317957545500,1.53554541015625,-0.09081372618675232,-0.11305110156536102,0.03568633273243904
1714858317967494700,1.54549462890625,-0.08655267208814621,-0.09920267760753632,0.04314317926764488
1714858317977444400,1.5554443359375,-0.08016108721494675,-0.07896266877651215,0.04420844092965126
1714858317987393800,1.565393798828125,-0.07483477145433426,-0.058722659945487976,0.042077913880348206
1714858317997343200,1.57534326171875,-0.08016108721494675,-0.023568958044052124,0.022903168573975563
1714858318007292700,1.585292724609375,-0.08655267208814621,0.02330264262855053,-0.004793686326593161
1714858318017242000,1.5952421875,-0.08335687965154648,0.04780370742082596,-0.01438105944544077
1714858318027191600,1.605191650390625,-0.07590003311634064,0.032890014350414276,-0.004793686326593161
1714858318037141200,1.615141357421875,-0.06631266325712204,-0.019307903945446014,0.017576850950717926
1714858318047090700,1.625090576171875,-0.05566002428531647,-0.07470161467790604,0.033555805683135986
1714858318057040100,1.6350400390625,-0.05139897018671036,-0.09813741594552994,0.03675159439444542
1714858318066989600,1.644989501953125,-0.056725289672613144,-0.09813741594552994,0.033555805683135986
1714858318076939000,1.65493896484375,-0.07057371735572815,-0.0715058222413063,0.03142527863383293
1714858318086888400,1.664888427734375,-0.08442214131355286,-0.023568958044052124,0.029294749721884727
1714858318096838000,1.674837890625,-0.08122635632753372,0.024367906153202057,0.015446322970092297
1714858318106787600,1.68478759765625,-0.04607265070080757,0.053130023181438446,-0.011185267940163612
1714858318116737000,1.694737060546875,0.0007989477599039674,0.05419528856873512,-0.029294749721884727
1714858318126686500,1.7046865234375,0.03701791167259216,0.02649843320250511,-0.03249054029583931
1714858318136636000,1.714635986328125,0.04660528525710106,0.0019973693415522575,-0.01225053146481514
1714858318146585300,1.72458544921875,0.03488738462328911,-0.018242640420794487,0.022903168573975563
1714858318156534800,1.73453466796875,0.011451584286987782,-0.03741738572716713,0.059122130274772644
1714858318166484500,1.744484375,-0.011984216049313545,-0.058722659945487976,0.07190529257059097
1714858318176434000,1.754433837890625,-0.032224226742982864,-0.08428898453712463,0.06018739566206932
1714858318186383400,1.76438330078125,-0.03968106955289841,-0.08748477697372437,0.03994738683104515
1714858318196332800,1.774332763671875,-0.04713791608810425,-0.06191844865679741,0.021837905049324036
1714858318206282200,1.7842822265625,-0.040746334940195084,-0.011851058341562748,0.01970737800002098
1714858318216231700,1.794231689453125,-0.01837579719722271,0.03821633383631706,0.020772641524672508
1714858318226181000,1.80418115234375,-0.001331579522229731,0.03928159549832344,0.01970737800002098
1714858318236130800,1.814130859375,0.013582111336290836,0.013715269044041634,0.026098959147930145
1714858318246080300,1.824080322265625,0.01784316636621952,-0.01078579481691122,0.03675159439444542
1714858318256029700,1.83402978515625,0.011451584286987782,-0.031025802716612816,0.04846949502825737
1714858318265979100,1.843979248046875,0.0007989477599039674,-0.05339634045958519,0.04846949502825737
1714858318275928600,1.853928466796875,-0.006657897960394621,-0.06511423736810684,0.03249054029583931
1714858318285878000,1.8638779296875,-0.001331579522229731,-0.055526867508888245,0.01225053146481514
1714858318295827700,1.87382763671875,0.013582111336290836,-0.0342215932905674,-0.0005326318205334246
1714858318305777200,1.883777099609375,0.025300011038780212,-0.020373167470097542,-0.004793686326593161
1714858318315726600,1.8937265625,0.03488738462328911,0.003062632866203785,-0.011185267940163612
1714858318325676000,1.903676025390625,0.03808317333459854,0.028628960251808167,-0.026098959147930145
1714858318335625500,1.91362548828125,0.03914843872189522,0.05632581561803818,-0.04527370631694794
1714858318345575000,1.923574951171875,0.04127896577119827,0.07976161688566208,-0.058056868612766266
1714858318355524400,1.9335244140625,0.048735812306404114,0.0786963477730751,-0.053795814514160156
1714858318365474000,1.94347412109375,0.048735812306404114,0.03395527973771095,-0.03249054029583931
1714858318375423500,1.953423583984375,0.03808317333459854,-0.048070020973682404,-0.005858949851244688
1714858318385373000,1.963373046875,0.02210422046482563,-0.12263847887516022,0.022903168573975563
1714858318395322400,1.973322265625,-0.001331579522229731,-0.1759016513824463,0.04846949502825737
1714858318405271800,1.983271728515625,-0.01837579719722271,-0.22064273059368134,0.07723161578178406
1714858318415221200,1.99322119140625,-0.020506324246525764,-0.24407853186130524,0.10066741704940796
1714858318425171000,2.0031708984375,-0.013049479573965073,-0.246209055185318,0.10492847114801407
1714858318435120400,2.013120361328125,-0.007723161485046148,-0.21212062239646912,0.08894951641559601
1714858318445069800,2.02306982421875,-0.006657897960394621,-0.15566164255142212,0.058056868612766266
1714858318455019300,2.033019287109375,-0.007723161485046148,-0.06617950648069382,0.01651158556342125
1714858318464968700,2.04296875,-0.008788425475358963,0.03608580678701401,-0.034621067345142365
1714858318474918100,2.052918212890625,-0.0034621069207787514,0.12769848108291626,-0.08575372397899628
1714858318484867600,2.06286767578125,0.010386320762336254,0.1724395453929901,-0.11877689510583878
1714858318494817300,2.0728173828125,0.01784316636621952,0.15539532899856567,-0.11238531768321991
1714858318504766700,2.0827666015625,0.019973693415522575,0.09147951751947403,-0.06870950758457184
1714858318514716200,2.092716064453125,0.013582111336290836,0.008388951420783997,-0.010120004415512085
1714858318524665600,2.10266552734375,-0.0034621069207787514,-0.06298371404409409,0.03675159439444542
1714858318534615000,2.112614990234375,-0.02263685315847397,-0.08961530029773712,0.04846949502825737
1714858318544564500,2.122564453125,-0.029028434306383133,-0.07470161467790604,0.02396843209862709
1714858318554514000,2.132513916015625,-0.024767380207777023,-0.042743705213069916,-0.021837905049324036
1714858318564463000,2.142463134765625,-0.015180006623268127,-0.013981585390865803,-0.06764423847198486
1714858318574412500,2.15241259765625,-0.001331579522229731,0.021172115579247475,-0.08894951641559601
1714858318584362000,2.162362060546875,0.02210422046482563,0.05952160432934761,-0.07403582334518433
1714858318594311400,2.1723115234375,0.03914843872189522,0.06804371625185013,-0.03568633273243904
1714858318604260900,2.1822607421875,0.048735812306404114,0.0456731803715229,-0.0005326318205334246
1714858318614210300,2.192210205078125,0.04980107396841049,-0.00013315795513335615,0.01438105944544077
1714858318624159700,2.20215966796875,0.03701791167259216,-0.051265813410282135,0.015446322970092297
1714858318634109200,2.212109130859375,0.010386320762336254,-0.07683213800191879,0.010120004415512085
1714858318644058600,2.22205859375,-0.017310533672571182,-0.07257108390331268,-0.005858949851244688
1714858318654008000,2.232008056640625,-0.03861580789089203,-0.05339634045958519,-0.026098959147930145
1714858318663957500,2.24195751953125,-0.04713791608810425,-0.027830012142658234,-0.038882121443748474
1714858318673907000,2.251906982421875,-0.03968106955289841,-0.007590003311634064,-0.04740423336625099
1714858318683856400,2.2618564453125,-0.020506324246525764,0.009454214945435524,-0.046338967978954315
1714858318693805800,2.271805908203125,-0.001331579522229731,0.03075948730111122,-0.03994738683104515
1714858318703755300,2.28175537109375,0.012516847811639309,0.04247738793492317,-0.029294749721884727
1714858318713704700,2.29170458984375,0.023169483989477158,0.04034686088562012,-0.009054740890860558
1714858318723654100,2.301654052734375,0.027430538088083267,0.024367906153202057,0.006924213841557503
1714858318733603600,2.311603515625,0.028495801612734795,-0.0043942127376794815,0.013315795920789242
1714858318743553000,2.321552978515625,0.02210422046482563,-0.03635212033987045,0.01438105944544077
1714858318753502200,2.331502197265625,0.010386320762336254,-0.047004759311676025,0.013315795920789242
1714858318763451600,2.34145166015625,0.0018642114009708166,-0.048070020973682404,0.0015978955198079348
1714858318773401000,2.351401123046875,-0.0002663159102667123,-0.042743705213069916,-0.022903168573975563
1714858318783350500,2.3613505859375,-0.0002663159102667123,-0.02143843099474907,-0.046338967978954315
1714858318793300000,2.371300048828125,0.0007989477599039674,0.003062632866203785,-0.06870950758457184
1714858318803249400,2.38124951171875,0.011451584286987782,0.021172115579247475,-0.08149266988039017
1714858318813198800,2.39119873046875,0.027430538088083267,0.017976323142647743,-0.08362319320440292
1714858318823148300,2.401148193359375,0.03914843872189522,-0.008655266836285591,-0.07936213910579681
1714858318833097700,2.41109765625,0.03914843872189522,-0.03315633162856102,-0.06444845348596573
1714858318843047200,2.421047119140625,0.025300011038780212,-0.0576573945581913,-0.038882121443748474
1714858318852996600,2.43099658203125,0.0050600022077560425,-0.07896266877651215,-0.017576850950717926
1714858318862946000,2.440946044921875,-0.01837579719722271,-0.08535424619913101,-0.002663159044459462
1714858318872895500,2.4508955078125,-0.04181159660220146,-0.05659212917089462,0.004793686326593161
1714858318882845000,2.460844970703125,-0.06311687082052231,-0.012916321866214275,-0.0005326318205334246
1714858318892794400,2.47079443359375,-0.06950845569372177,0.01584579609334469,-0.01651158556342125
1714858318902743800,2.480743896484375,-0.060986343771219254,0.02330264262855053,-0.03675159439444542
1714858318912693200,2.490693359375,-0.04394212365150452,0.021172115579247475,-0.05592634156346321
1714858318922642700,2.500642578125,-0.03009369783103466,0.013715269044041634,-0.062317922711372375
1714858318932592400,2.51059228515625,-0.024767380207777023,0.011584741994738579,-0.0516652874648571
1714858318942541800,2.520541748046875,-0.02583264373242855,0.016911059617996216,-0.03142527863383293
1714858318952491300,2.5304912109375,-0.024767380207777023,0.016911059617996216,-0.01438105944544077
1714858318962440700,2.540440673828125,-0.019441060721874237,0.007323687430471182,0.0005326318205334246
1714858318972390100,2.55039013671875,-0.013049479573965073,-0.0043942127376794815,0.01225053146481514
1714858318982339600,2.560339599609375,-0.010918952524662018,-0.016112113371491432,0.0282294861972332
1714858318992289300,2.570289306640625,-0.007723161485046148,-0.02463422156870365,0.037816859781742096
1714858319002238700,2.58023876953125,-0.004527370445430279,-0.03209106624126434,0.042077913880348206
1714858319012188200,2.590188232421875,0.002929474925622344,-0.042743705213069916,0.038882121443748474
1714858319022137600,2.6001376953125,0.010386320762336254,-0.05659212917089462,0.03249054029583931
1714858319032087000,2.610087158203125,0.01784316636621952,-0.059787921607494354,0.030360013246536255
1714858319042036500,2.620036376953125,0.02210422046482563,-0.048070020973682404,0.033555805683135986
1714858319051986000,2.62998583984375,0.021038956940174103,-0.03741738572716713,0.03568633273243904
1714858319061935600,2.639935546875,0.014647374860942364,-0.03209106624126434,0.030360013246536255
1714858319071885000,2.649885009765625,0.008255792781710625,-0.02889527566730976,0.017576850950717926
1714858319081834500,2.65983447265625,0.009321057237684727,-0.031025802716612816,0.005858949851244688
1714858319091784000,2.669783935546875,0.016777902841567993,-0.04167843982577324,0.006924213841557503
1714858319101733400,2.6797333984375,0.02210422046482563,-0.05659212917089462,0.017576850950717926
1714858319111682800,2.689682861328125,0.024234747514128685,-0.06831002980470657,0.025033695623278618
1714858319121632500,2.699632568359375,0.019973693415522575,-0.08002793043851852,0.025033695623278618
1714858319131582000,2.70958203125,0.00612526573240757,-0.09387636184692383,0.022903168573975563
1714858319141531400,2.719531494140625,-0.007723161485046148,-0.09281109273433685,0.029294749721884727
1714858319151480800,2.729480712890625,-0.015180006623268127,-0.08002793043851852,0.04420844092965126
1714858319161430300,2.73943017578125,-0.0141147430986166,-0.07470161467790604,0.05273054912686348
1714858319171379700,2.749379638671875,-0.005592633970081806,-0.08855003863573074,0.0516652874648571
1714858319181329200,2.7593291015625,-0.0034621069207787514,-0.12903006374835968,0.05699160322546959
1714858319191278800,2.76927880859375,-0.006657897960394621,-0.1705753356218338,0.0751010850071907
1714858319201228300,2.779228271484375,-0.006657897960394621,-0.17377112805843353,0.09214530140161514
1714858319211177700,2.789177734375,-0.0034621069207787514,-0.15885743498802185,0.10279794037342072
1714858319221127200,2.799127197265625,-0.005592633970081806,-0.1237037405371666,0.10279794037342072
1714858319231076600,2.80907666015625,0.002929474925622344,-0.07470161467790604,0.08149266988039017
1714858319241026000,2.819026123046875,0.013582111336290836,-0.03635212033987045,0.03675159439444542
1714858319250975500,2.8289755859375,0.015712639316916466,-0.009720530360937119,-0.01225053146481514
1714858319260925200,2.83892529296875,0.010386320762336254,0.016911059617996216,-0.04740423336625099
1714858319270874600,2.84887451171875,0.0018642114009708166,0.03608580678701401,-0.06657897680997849
1714858319280824000,2.858823974609375,-0.004527370445430279,0.041412122547626495,-0.06764423847198486
1714858319290773500,2.8687734375,-0.007723161485046148,0.03502054139971733,-0.054861076176166534
1714858319300723000,2.878722900390625,-0.0034621069207787514,0.017976323142647743,-0.034621067345142365
1714858319310672400,2.88867236328125,0.0050600022077560425,0.003062632866203785,-0.009054740890860558
1714858319320622000,2.8986220703125,0.007190529722720385,-0.006524739786982536,0.01225053146481514
1714858319330571500,2.908571533203125,0.002929474925622344,-0.013981585390865803,0.025033695623278618
1714858319340521000,2.91852099609375,-0.004527370445430279,-0.016112113371491432,0.022903168573975563
1714858319350470400,2.928470458984375,-0.011984216049313545,-0.011851058341562748,0.015446322970092297
1714858319360419800,2.938419921875,-0.007723161485046148,0.0009321057004854083,0.011185267940163612
1714858319370369300,2.948369384765625,0.003994738683104515,0.014780532568693161,0.011185267940163612
1714858319380318700,2.958318603515625,0.016777902841567993,0.03608580678701401,0.013315795920789242
1714858319390268400,2.968268310546875,0.02210422046482563,0.048868969082832336,0.021837905049324036
1714858319400217900,2.9782177734375,0.02210422046482563,0.03821633383631706,0.03142527863383293
1714858319410167300,2.988167236328125,0.019973693415522575,0.012650005519390106,0.037816859781742096
1714858319420116700,2.99811669921875,0.019973693415522575,-0.01078579481691122,0.03675159439444542
1714858319430066200,3.008066162109375,0.01784316636621952,-0.02463422156870365,0.03249054029583931
1714858319440015600,3.018015625,0.010386320762336254,-0.02889527566730976,0.030360013246536255
1714858319449965300,3.02796533203125,-0.0023968431632965803,-0.02143843099474907,0.025033695623278618
1714858319459914800,3.037914794921875,-0.013049479573965073,-0.01504684891551733,0.015446322970092297
1714858319469864200,3.0478642578125,-0.017310533672571182,-0.006524739786982536,0.0037284228019416332
1714858319479813600,3.057813720703125,-0.011984216049313545,0.003062632866203785,-0.006924213841557503
1714858319489763000,3.06776318359375,-0.001331579522229731,0.01584579609334469,-0.010120004415512085
1714858319499712500,3.07771240234375,0.00612526573240757,0.016911059617996216,0.0015978955198079348
1714858319509662000,3.087661865234375,0.009321057237684727,0.0062584239058196545,0.013315795920789242
1714858319519611600,3.097611572265625,0.009321057237684727,-0.013981585390865803,0.018642114475369453
1714858319529561000,3.10756103515625,0.00612526573240757,-0.02569948509335518,0.017576850950717926
1714858319539510500,3.117510498046875,0.007190529722720385,-0.026764748618006706,0.01438105944544077
1714858319549460000,3.1274599609375,0.003994738683104515,-0.013981585390865803,0.004793686326593161
1714858319559409400,3.137409423828125,0.0007989477599039674,0.009454214945435524,-0.011185267940163612
1714858319569358800,3.14735888671875,-0.0002663159102667123,0.02649843320250511,-0.029294749721884727
1714858319579308500,3.15730859375,0.00612526573240757,0.02756369672715664,-0.04101264849305153
1714858319589258000,3.167258056640625,0.015712639316916466,0.017976323142647743,-0.042077913880348206
1714858319599207400,3.17720751953125,0.019973693415522575,0.005193160381168127,-0.03568633273243904
1714858319609156900,3.187156982421875,0.01784316636621952,0.0019973693415522575,-0.030360013246536255
1714858319619106300,3.197106201171875,0.012516847811639309,0.013715269044041634,-0.02396843209862709
1714858319629055700,3.2070556640625,0.012516847811639309,0.028628960251808167,-0.020772641524672508
1714858319639005200,3.217005126953125,0.01784316636621952,0.029694223776459694,-0.022903168573975563
1714858319648955000,3.226954833984375,0.028495801612734795,0.014780532568693161,-0.027164222672581673
1714858319658904300,3.236904296875,0.027430538088083267,-0.0022636852227151394,-0.025033695623278618
1714858319668853800,3.246853759765625,0.016777902841567993,-0.0022636852227151394,-0.017576850950717926
1714858319678803200,3.25680322265625,0.0050600022077560425,0.012650005519390106,-0.015446322970092297
1714858319688752600,3.266752685546875,0.0018642114009708166,0.02649843320250511,-0.01970737800002098
1714858319698702000,3.2767021484375,0.0018642114009708166,0.02330264262855053,-0.022903168573975563
1714858319708651800,3.28665185546875,0.007190529722720385,0.008388951420783997,-0.021837905049324036
1714858319718601200,3.296601318359375,0.012516847811639309,-0.005459476262331009,-0.020772641524672508
1714858319728550700,3.306550537109375,0.011451584286987782,-0.01078579481691122,-0.020772641524672508
1714858319738500000,3.3165,0.0050600022077560425,-0.0043942127376794815,-0.022903168573975563
1714858319748449500,3.326449462890625,-0.0034621069207787514,0.009454214945435524,-0.026098959147930145
1714858319758399000,3.33639892578125,-0.005592633970081806,0.025433169677853584,-0.030360013246536255
1714858319768348400,3.346348388671875,-0.006657897960394621,0.03821633383631706,-0.03249054029583931
1714858319778298000,3.356298095703125,-0.004527370445430279,0.03608580678701401,-0.033555805683135986
1714858319788247600,3.36624755859375,0.0007989477599039674,0.02330264262855053,-0.037816859781742096
1714858319798197000,3.376197021484375,0.0050600022077560425,0.01904158666729927,-0.033555805683135986
1714858319808146400,3.386146484375,0.0007989477599039674,0.020106852054595947,-0.01651158556342125
1714858319818095900,3.396095947265625,-0.008788425475358963,0.009454214945435524,0.010120004415512085
1714858319828045300,3.40604541015625,-0.00985368900001049,0.0019973693415522575,0.03675159439444542
1714858319837995000,3.4159951171875,-0.004527370445430279,-0.0011984215816482902,0.054861076176166534
1714858319847944400,3.4259443359375,0.008255792781710625,-0.009720530360937119,0.05699160322546959
1714858319857894000,3.435893798828125,0.024234747514128685,-0.01717737689614296,0.03675159439444542
1714858319867843300,3.44584326171875,0.03488738462328911,-0.008655266836285591,0.004793686326593161
1714858319877792800,3.455792724609375,0.03382211923599243,0.009454214945435524,-0.02396843209862709
1714858319887742200,3.4657421875,0.027430538088083267,0.028628960251808167,-0.03994738683104515
1714858319897691600,3.475691650390625,0.01784316636621952,0.04247738793492317,-0.04101264849305153
1714858319907641300,3.485641357421875,0.011451584286987782,0.032890014350414276,-0.033555805683135986
1714858319917590800,3.4955908203125,0.012516847811639309,0.014780532568693161,-0.01651158556342125
1714858319927540200,3.505540283203125,0.014647374860942364,-0.005459476262331009,-0.0005326318205334246
1714858319937489700,3.51548974609375,0.013582111336290836,-0.01717737689614296,0.006924213841557503
1714858319947439000,3.525439208984375,0.010386320762336254,-0.01078579481691122,0.009054740890860558
1714858319957388500,3.535388427734375,0.008255792781710625,-0.0022636852227151394,0.0037284228019416332
1714858319967338200,3.545338134765625,0.010386320762336254,0.0009321057004854083,-0.005858949851244688
1714858319977287700,3.55528759765625,0.012516847811639309,0.007323687430471182,-0.013315795920789242
1714858319987237000,3.565237060546875,0.01784316636621952,0.017976323142647743,-0.015446322970092297
1714858319997186600,3.5751865234375,0.027430538088083267,0.02649843320250511,-0.010120004415512085
1714858320007136000,3.585135986328125,0.035952646285295486,0.02756369672715664,0.002663159044459462
1714858320017085400,3.59508544921875,0.03808317333459854,0.017976323142647743,0.015446322970092297
1714858320027035000,3.605034912109375,0.03488738462328911,-0.0033289489801973104,0.01651158556342125
1714858320036984600,3.614984619140625,0.028495801612734795,-0.016112113371491432,0.011185267940163612
1714858320046934000,3.62493408203125,0.02210422046482563,-0.016112113371491432,0.0005326318205334246
1714858320056883500,3.634883544921875,0.013582111336290836,-0.011851058341562748,-0.011185267940163612
1714858320066833000,3.6448330078125,0.007190529722720385,-0.00013315795513335615,-0.01651158556342125
1714858320076782300,3.6547822265625,-0.0034621069207787514,0.008388951420783997,-0.018642114475369453
1714858320086731800,3.664731689453125,-0.016245270147919655,0.005193160381168127,-0.017576850950717926
1714858320096681200,3.67468115234375,-0.020506324246525764,-0.011851058341562748,-0.010120004415512085
1714858320106630700,3.684630615234375,-0.02263685315847397,-0.03209106624126434,-0.002663159044459462
1714858320116580000,3.694580078125,-0.02583264373242855,-0.03635212033987045,0.002663159044459462
1714858320126529500,3.704529541015625,-0.031158961355686188,-0.023568958044052124,0.010120004415512085
1714858320136479000,3.71447900390625,-0.03968106955289841,-0.007590003311634064,0.017576850950717926
1714858320146428400,3.724428466796875,-0.04713791608810425,0.007323687430471182,0.013315795920789242
1714858320156377900,3.7343779296875,-0.05033370852470398,0.014780532568693161,0.006924213841557503
1714858320166327300,3.744327392578125,-0.052464235574007034,0.012650005519390106,0.002663159044459462
1714858320176276700,3.75427685546875,-0.05139897018671036,0.0009321057004854083,-0.0015978955198079348
1714858320186226200,3.76422607421875,-0.048203181475400925,-0.01504684891551733,-0.0015978955198079348
1714858320196175600,3.774175537109375,-0.04607265070080757,-0.022503694519400597,-0.006924213841557503
1714858320206125000,3.784125,-0.04394212365150452,-0.011851058341562748,-0.01970737800002098
1714858320216074200,3.79407421875,-0.03968106955289841,0.011584741994738579,-0.038882121443748474
1714858320226023700,3.804023681640625,-0.031158961355686188,0.021172115579247475,-0.053795814514160156
1714858320235973000,3.81397314453125,-0.020506324246525764,0.009454214945435524,-0.061252661049366
1714858320245922600,3.823922607421875,-0.015180006623268127,-0.0043942127376794815,-0.059122130274772644
1714858320255872000,3.8338720703125,-0.016245270147919655,-0.00013315795513335615,-0.04953476041555405
1714858320265821400,3.843821533203125,-0.01837579719722271,0.011584741994738579,-0.03249054029583931
1714858320275771000,3.85377099609375,-0.016245270147919655,0.01904158666729927,-0.018642114475369453
1714858320285720300,3.86372021484375,-0.006657897960394621,0.01584579609334469,-0.018642114475369453
1714858320295669800,3.873669677734375,0.008255792781710625,0.004127896390855312,-0.022903168573975563
1714858320305619200,3.883619140625,0.024234747514128685,-0.009720530360937119,-0.0282294861972332
1714858320315568600,3.893568603515625,0.03488738462328911,-0.020373167470097542,-0.027164222672581673
1714858320325518000,3.90351806640625,0.04127896577119827,-0.01504684891551733,-0.01651158556342125
1714858320335467500,3.913467529296875,0.04127896577119827,0.0019973693415522575,-0.006924213841557503
1714858320345417000,3.9234169921875,0.035952646285295486,0.021172115579247475,-0.0015978955198079348
1714858320355366400,3.933366455078125,0.030626330524683,0.032890014350414276,0.0005326318205334246
1714858320365315800,3.94331591796875,0.02636527456343174,0.032890014350414276,0.0005326318205334246
1714858320375265300,3.953265380859375,0.028495801612734795,0.021172115579247475,-0.0015978955198079348
1714858320385214700,3.963214599609375,0.027430538088083267,0.0062584239058196545,0.0005326318205334246
1714858320395164200,3.9731640625,0.021038956940174103,0.0019973693415522575,0.015446322970092297
1714858320405113600,3.983113525390625,0.018908429890871048,0.011584741994738579,0.04101264849305153
1714858320415063000,3.99306298828125,0.030626330524683,0.01584579609334469,0.062317922711372375
1714858320425012700,4.0030126953125,0.05193160101771355,0.022237379103899002,0.06657897680997849
1714858320434962200,4.012962158203125,0.0679105594754219,0.04354264959692955,0.06444845348596573
1714858320444911600,4.02291162109375,0.07430213689804077,0.08721846342086792,0.07403582334518433
1714858320454861000,4.032861083984375,0.0732368752360344,0.13835111260414124,0.09747162461280823
1714858320464810500,4.042810546875,0.0732368752360344,0.15965639054775238,0.13262532651424408
1714858320474760000,4.052760009765625,0.0732368752360344,0.12024163454771042,0.17630113661289215
1714858320484709600,4.062709716796875,0.08602003753185272,0.020106852054595947,0.23808641731739044
1714858320494659000,4.0726591796875,0.110521100461483,-0.11305110156536102,0.3158506751060486
1714858320504608500,4.0826083984375,0.110521100461483,-0.2451438009738922,0.37870121002197266
1714858320514558000,4.092557861328125,0.09560741484165192,-0.3207775056362152,0.4479433596134186
1714858320524507400,4.10250732421875,0.05193160101771355,-0.28029748797416687,0.5832318663597107
1714858320534456800,4.112456787109375,-0.0141147430986166,-0.1652490198612213,0.7696529626846313
1714858320544406300,4.12240625,-0.05992107838392258,-0.051265813410282135,0.9539436101913452
1714858320554356000,4.13235595703125,-0.06311687082052231,0.08402267098426819,1.0881668329238892
1714858320564305400,4.142305419921875,-0.05566002428531647,0.17137429118156433,1.1201246976852417
1714858320574254800,4.1522548828125,-0.06311687082052231,0.1351553201675415,1.0988194942474365
1714858320584204300,4.162204345703125,-0.08868319541215897,-0.0043942127376794815,1.0626004934310913
1714858320594153700,4.17215380859375,-0.10998847335577011,-0.3399522602558136,0.9816404581069946
1714858320604103200,4.182103271484375,-0.19734008610248566,-0.7064029574394226,0.933703601360321
1714858320614052900,4.192052978515625,-0.42850229144096375,-0.7852324843406677,0.9358341097831726
1714858320624002300,4.202002197265625,-0.60533607006073,-0.8981503844261169,0.9230509400367737
1714858320633951700,4.21195166015625,-0.7203845381736755,-1.0249167680740356,0.9283772706985474
1714858320643901200,4.221901123046875,-0.793887734413147,-1.102681040763855,0.9230509400367737
1714858320653850600,4.2318505859375,-0.7736477255821228,-1.0462220907211304,0.8644614219665527
1714858320663800000,4.241800048828125,-0.6799045205116272,-0.8257125020027161,0.7068024277687073
1714858320673749500,4.25174951171875,-0.5616602301597595,-0.4848281145095825,0.48203179240226746
1714858320683699200,4.26169921875,-0.40932756662368774,-0.07044056057929993,0.221042200922966
1714858320693648600,4.271648681640625,-0.2474074810743332,0.26405221223831177,-0.05699160322546959
1714858320703598000,4.28159814453125,-0.12170637398958206,0.3322291076183319,-0.2625874876976013
1714858320713547500,4.291547607421875,-0.05779055133461952,0.12876373529434204,-0.3009369671344757
1714858320723497000,4.3014970703125,-0.05459476262331009,-0.20999009907245636,-0.19014956057071686
1714858320733446400,4.3114462890625,-0.10146636515855789,-0.5860281586647034,-0.01225053146481514
1714858320743396000,4.32139599609375,-0.15686006844043732,-0.8406261801719666,0.13795164227485657
1714858320753345500,4.331345458984375,-0.20586219429969788,-0.9024114608764648,0.1933453530073166
1714858320763295000,4.341294921875,-0.28682222962379456,-0.6872282028198242,0.16245271265506744
1714858320773244400,4.351244384765625,-0.3795001804828644,-0.28988486528396606,0.06977476924657822
1714858320783193900,4.36119384765625,-0.4444812536239624,0.14793848991394043,-0.030360013246536255
1714858320793143300,4.371143310546875,-0.45619916915893555,0.48988813161849976,-0.12410321086645126
1714858320803092700,4.3810927734375,-0.4402202069759369,0.4589954614639282,-0.19228008389472961
1714858320813042400,4.39104248046875,-0.4434159994125366,0.06271740049123764,-0.2253032624721527
1714858320822992000,4.400991943359375,-0.4636560082435608,-0.36551859974861145,-0.24341274797916412
1714858320832941300,4.41094140625,-0.47537389397621155,-0.6456829309463501,-0.2348906397819519
1714858320842890800,4.420890869140625,-0.4647212624549866,-0.8342345952987671,-0.1933453530073166
1714858320852840200,4.430840087890625,-0.4071970283985138,-0.968457818031311,-0.1411474347114563
1714858320862789600,4.44078955078125,-0.3219759464263916,-0.9631314873695374,-0.09534109383821487
1714858320872739300,4.4507392578125,-0.22184115648269653,-0.8299735188484192,-0.06764423847198486
1714858320882688800,4.460688720703125,-0.12277163565158844,-0.649944007396698,-0.09321057051420212
1714858320892638200,4.47063818359375,-0.06205160543322563,-0.43156492710113525,-0.21038956940174103
1714858320902587600,4.480587646484375,-0.06524740159511566,-0.15779218077659607,-0.3914843797683716
1714858320912537000,4.490537109375,-0.07590003311634064,0.04673844203352928,-0.5874928832054138
1714858320922486500,4.500486572265625,-0.07163897901773453,0.061652131378650665,-0.7515435218811035
1714858320932436000,4.51043603515625,-0.060986343771219254,-0.10239847004413605,-0.833568811416626
1714858320942385700,4.5203857421875,-0.02583264373242855,-0.35699647665023804,-0.8069372177124023
1714858320952335000,4.530335205078125,0.04127896577119827,-0.6254429221153259,-0.6801708340644836
1714858320962284500,4.540284423828125,0.1201084777712822,-0.7969503402709961,-0.49588021636009216
1714858320972234000,4.55023388671875,0.18722008168697357,-0.8502135276794434,-0.3254380524158478
1714858320982183400,4.560183349609375,0.21278640627861023,-0.8161250948905945,-0.21358536183834076
1714858320992132900,4.5701328125,0.17550218105316162,-0.7383608818054199,-0.15393058955669403
1714858321002082600,4.58008251953125,0.10519478470087051,-0.742621898651123,-0.11238531768321991
1714858321012032000,4.590031982421875,0.03808317333459854,-0.8960198760032654,-0.08362319320440292
1714858321021981400,4.5999814453125,-0.020506324246525764,-1.0909631252288818,-0.09534109383821487
1714858321031931000,4.609930908203125,-0.04713791608810425,-1.203881025314331,-0.14221268892288208
1714858321041880300,4.61988037109375,-0.03435475379228592,-1.2081421613693237,-0.2071937769651413
1714858321051829800,4.629829833984375,0.03914843872189522,-1.0920283794403076,-0.276435911655426
1714858321061779200,4.639779296875,0.18828535079956055,-0.8544746041297913,-0.37337490916252136
1714858321071729000,4.64972900390625,0.36618438363075256,-0.47311022877693176,-0.5065328478813171
1714858321081678300,4.65967822265625,0.5728455185890198,0.017976323142647743,-0.6492781639099121
1714858321091627800,4.669627685546875,0.7805719375610352,0.5548691749572754,-0.7771098017692566
1714858321101577200,4.6795771484375,0.9978857040405273,1.1492862701416016,-0.8623309135437012
1714858321111526700,4.689526611328125,1.151283621788025,1.5881749391555786,-0.8900277614593506
1714858321121476000,4.69947607421875,1.1938942670822144,1.5391727685928345,-0.8101329803466797
1714858321131425800,4.70942578125,1.121456265449524,1.1727221012115479,-0.5981455445289612
1714858321141375200,4.719375244140625,1.0085383653640747,0.753008246421814,-0.2998717129230499
1714858321151324700,4.72932470703125,0.9126646518707275,0.38655754923820496,0.025033695623278618
1714858321161274000,4.739274169921875,0.8434224724769592,0.140481635928154,0.2966759204864502
1714858321171223600,4.7492236328125,0.8167908787727356,0.05845634266734123,0.48629283905029297
1714858321181173000,4.759173095703125,0.8306393027305603,0.102132149040699,0.577905535697937
1714858321191122400,4.769122314453125,0.8594014644622803,0.27470487356185913,0.5651223659515381
1714858321201072000,4.779072021484375,0.8583361506462097,0.5122586488723755,0.48203179240226746
1714858321211021600,4.789021484375,0.8050730228424072,0.7103977203369141,0.37337490916252136
1714858321220971000,4.798970947265625,0.6580666303634644,0.8605998754501343,0.30839383602142334
1714858321230920400,4.80892041015625,0.4641886353492737,0.9692567586898804,0.26152223348617554
1714858321240870000,4.818869873046875,0.25965800881385803,0.9735178351402283,0.24234747886657715
1714858321250819300,4.8288193359375,0.11478215456008911,0.7498124241828918,0.23169484734535217
1714858321260768800,4.838768798828125,0.010386320762336254,0.3886880576610565,0.2263685166835785
1714858321270718500,4.848718505859375,-0.07163897901773453,0.08189214020967484,0.20293273031711578
1714858321280668000,4.85866796875,-0.12809795141220093,-0.012916321866214275,0.14327795803546906
1714858321290617300,4.868617431640625,-0.17496955394744873,0.15646059811115265,0.061252661049366
1714858321300566800,4.87856689453125,-0.17816534638404846,0.31731539964675903,0.04420844092965126
1714858321310516200,4.88851611328125,-0.17496955394744873,0.5048018097877502,0.005858949851244688
1714858321320465700,4.898465576171875,-0.14407691359519958,0.5676523447036743,-0.00798947736620903
1714858321330415000,4.9084150390625,-0.1249021589756012,0.49414917826652527,-0.025033695623278618
1714858321340364500,4.918364501953125,-0.18455693125724792,0.4504733681678772,-0.05699160322546959
1714858321350314000,4.92831396484375,-0.2708432674407959,0.49947547912597656,-0.08788424730300903
1714858321360263400,4.938263427734375,-0.32517173886299133,0.4824312627315521,-0.10599373281002045
1714858321370212900,4.948212890625,-0.3400854170322418,0.44834282994270325,-0.1358211189508438
1714858321380162300,4.958162353515625,-0.3177148699760437,0.594283938407898,-0.19654114544391632
1714858321390111500,4.968111572265625,-0.2804306447505951,0.8339682817459106,-0.28495803475379944
1714858321400061000,4.97806103515625,-0.1952095627784729,1.1109367609024048,-0.3776359558105469
1714858321410010400,4.98801025390625,-0.09400951862335205,1.2739222049713135,-0.3904191255569458
1714858321419959800,4.997959716796875,0.04340949282050133,1.3239895105361938,-0.2913496196269989
1714858321429909200,5.0079091796875,0.15952323377132416,1.1684610843658447,-0.0516652874648571
1714858321439858700,5.017858642578125,0.138217955827713,0.8552735447883606,0.2636527419090271
1714858321449808100,5.02780810546875,0.040213704109191895,0.5633913278579712,0.5480781197547913
1714858321459757600,5.037757568359375,-0.03968106955289841,0.3269027769565582,0.7376950979232788
1714858321469707000,5.04770703125,-0.0918789878487587,0.07017423957586288,0.8356993198394775
1714858321479656400,5.057656494140625,-0.1249021589756012,-0.11837742477655411,0.8399603962898254
1714858321489606000,5.06760595703125,-0.14940322935581207,-0.23875221610069275,0.7643266916275024
1714858321499555300,5.077555419921875,-0.20160114765167236,-0.5530049800872803,0.6940192580223083
1714858321509504800,5.0875048828125,-0.29108327627182007,-0.9119988083839417,0.5853623747825623
1714858321519454200,5.0974541015625,-0.3454117476940155,-0.21531641483306885,0.18162745237350464
1714858321529403600,5.107403564453125,-0.3081275224685669,0.33435961604118347,-0.09534109383821487
1714858321539353000,5.11735302734375,-0.23462431132793427,0.5932186841964722,-0.28815382719039917
1714858321549302500,5.127302490234375,-0.16431692242622375,0.7625955939292908,-0.4010717570781708
1714858321559252000,5.137251953125,-0.11211899667978287,0.9085367321968079,-0.4479433596134186
1714858321569201400,5.147201416015625,-0.07376950979232788,0.8946883082389832,-0.39361491799354553
1714858321579150600,5.157150634765625,-0.017310533672571182,0.7487471699714661,-0.267913818359375
1714858321589100000,5.16710009765625,0.07110634446144104,0.6060018539428711,-0.12623374164104462
1714858321599049500,5.177049560546875,0.19148114323616028,0.4366249442100525,0.004793686326593161
1714858321608999000,5.1869990234375,0.34807488322257996,0.21611535549163818,0.11132004857063293
1714858321618948400,5.1969482421875,0.513190746307373,-0.03635212033987045,0.1507348120212555
1714858321628897800,5.206897705078125,0.6143907904624939,-0.20999009907245636,0.1177116334438324
1714858321638847200,5.21684716796875,0.6101297736167908,-0.2930806577205658,0.05699160322546959
1714858321648796700,5.226796630859375,0.5057339072227478,-0.28668907284736633,0.01438105944544077
1714858321658746000,5.23674609375,0.3459443747997284,-0.2078595608472824,0.02396843209862709
1714858321668695600,5.246695556640625,0.22237378358840942,-0.0810931921005249,0.04527370631694794
1714858321678645000,5.25664501953125,0.17763271927833557,0.0691089779138565,0.042077913880348206
1714858321688594400,5.266594482421875,0.21065588295459747,0.21824589371681213,-0.01970737800002098
1714858321698543900,5.2765439453125,0.2937464416027069,0.33116382360458374,-0.12516847252845764
1714858321708493300,5.286493408203125,0.42264336347579956,0.34075120091438293,-0.2444780021905899
1714858321718442800,5.29644287109375,0.5941507816314697,0.20972378551959991,-0.3286338448524475
1714858321728392200,5.30639208984375,0.7795066833496094,-0.04167843982577324,-0.3669833242893219
1714858321738342000,5.316341796875,0.8870983123779297,-0.22916483879089355,-0.354200154542923
1714858321748291300,5.326291259765625,0.835965633392334,-0.1844237744808197,-0.2593916952610016
1714858321758240800,5.33624072265625,0.6623276472091675,-0.01078579481691122,-0.0942758321762085
1714858321768190200,5.346190185546875,0.45673179626464844,0.19267955422401428,0.10066741704940796
1714858321778139600,5.3561396484375,0.30546435713768005,0.4036017656326294,0.2498043179512024
1714858321788089000,5.366089111328125,0.26391905546188354,0.6219807863235474,0.2998717129230499
1714858321798038500,5.37603857421875,0.33422645926475525,0.7487471699714661,0.26152223348617554
1714858321807988200,5.38598828125,0.4727107286453247,0.7562040090560913,0.17310534417629242
1714858321817937700,5.395937744140625,0.6101297736167908,0.7040061354637146,0.0846884623169899
1714858321827887000,5.40588720703125,0.7070687413215637,0.6241113543510437,0.04420844092965126
1714858321837836500,5.41583642578125,0.7326350808143616,0.5335639119148254,0.04314317926764488
1714858321847786000,5.425785888671875,0.6900244951248169,0.4067975580692291,0.06764423847198486
1714858321857735400,5.4357353515625,0.638891875743866,0.2757701277732849,0.10173267871141434
1714858321867684900,5.445684814453125,0.6090644598007202,0.18948377668857574,0.12303794920444489
1714858321877634600,5.455634521484375,0.588824450969696,0.17670060694217682,0.11238531768321991
1714858321887584000,5.465583984375,0.5579318404197693,0.21611535549163818,0.07829687744379044
1714858321897533400,5.475533447265625,0.534496009349823,0.308793306350708,0.013315795920789242
1714858321907483000,5.48548291015625,0.5451486706733704,0.43769019842147827,-0.07403582334518433
1714858321917432300,5.495432373046875,0.5643234252929688,0.5367597341537476,-0.1507348120212555
1714858321927381800,5.5053818359375,0.5834981799125671,0.5761744976043701,-0.18908429145812988
1714858321937331500,5.51533154296875,0.6026729345321655,0.5165197253227234,-0.17310534417629242
1714858321947281000,5.525281005859375,0.5984118580818176,0.3982754349708557,-0.11345057934522629
1714858321957230300,5.535230224609375,0.5664539337158203,0.2800311744213104,-0.03142527863383293
1714858321967179800,5.5451796875,0.513190746307373,0.16711322963237762,0.046338967978954315
1714858321977129200,5.555129150390625,0.4641886353492737,0.05952160432934761,0.12516847252845764
1714858321987078700,5.56507861328125,0.40879490971565247,-0.013981585390865803,0.1837579756975174
1714858321997028000,5.575028076171875,0.36724963784217834,-0.01717737689614296,0.1976063996553421
1714858322006977800,5.584977783203125,0.3587275445461273,0.029694223776459694,0.17523586750030518
1714858322016927200,5.59492724609375,0.3640538454055786,0.08189214020967484,0.12623374164104462
1714858322026876700,5.604876708984375,0.38109806180000305,0.09467530250549316,0.06444845348596573
1714858322036826000,5.614826171875,0.41838228702545166,0.08189214020967484,-0.004793686326593161
1714858322046775600,5.624775634765625,0.4354265034198761,0.09574057161808014,-0.08149266988039017
1714858322056725000,5.63472509765625,0.41838228702545166,0.10000162571668625,-0.14327795803546906
1714858322066674700,5.6446748046875,0.372575968503952,0.13728585839271545,-0.1699095517396927
1714858322076624100,5.6546240234375,0.3129211962223053,0.20226693153381348,-0.1784316599369049
1714858322086573600,5.664573486328125,0.24900537729263306,0.2821617126464844,-0.16245271265506744
1714858322096523000,5.67452294921875,0.17550218105316162,0.20439745485782623,-0.08255793154239655
1714858322106472400,5.684472412109375,0.09347688406705856,-0.0342215932905674,0.04101264849305153
1714858322116422000,5.694421875,0.027430538088083267,-0.2515353858470917,0.14860427379608154
1714858322126371300,5.704371337890625,-0.019441060721874237,-0.37510594725608826,0.20932430028915405
1714858322136321000,5.714321044921875,-0.031158961355686188,-0.3687143921852112,0.21891167759895325
1714858322146270500,5.7242705078125,-0.008788425475358963,-0.28029748797416687,0.1603221744298935
1714858322156220000,5.734219970703125,0.03701791167259216,-0.14500901103019714,0.06018739566206932
1714858322166169300,5.74416943359375,0.0679105594754219,-0.042743705213069916,-0.034621067345142365
1714858322176118800,5.754118896484375,0.06578002870082855,-0.07576687633991241,-0.11984215676784515
1714858322186068200,5.764068115234375,0.056192658841609955,-0.1759016513824463,-0.19014956057071686
1714858322196018000,5.774017822265625,0.03914843872189522,-0.2600574791431427,-0.2689790725708008
1714858322205967000,5.783967041015625,0.018908429890871048,-0.24833959341049194,-0.36378753185272217
1714858322215916500,5.79391650390625,-0.0023968431632965803,-0.13968269526958466,-0.4596612751483917
1714858322225866000,5.803865966796875,-0.011984216049313545,-0.02889527566730976,-0.540621280670166
1714858322235815400,5.8138154296875,-0.01837579719722271,0.012650005519390106,-0.6034718751907349
1714858322245764900,5.823764892578125,-0.031158961355686188,-0.05339634045958519,-0.6332992315292358
1714858322255714300,5.83371435546875,-0.0588558167219162,-0.1982721984386444,-0.6503434777259827
1714858322265663700,5.843663818359375,-0.09720530360937119,-0.32397329807281494,-0.683366596698761
1714858322275613200,5.85361328125,-0.11744531989097595,-0.29521119594573975,-0.7590003609657288
1714858322285562600,5.863562744140625,-0.10998847335577011,-0.1982721984386444,-0.8729835748672485
1714858322295512000,5.873511962890625,-0.09933583438396454,-0.1237037405371666,-0.9614004492759705
1714858322305461500,5.88346142578125,-0.11211899667978287,-0.05659212917089462,-0.9954888820648193
1714858322315411000,5.893410888671875,-0.1430116444826126,0.06271740049123764,-0.955008864402771
1714858322325360400,5.9033603515625,-0.1525990217924118,0.15006901323795319,-0.871918261051178
1714858322335309800,5.913309814453125,-0.12809795141220093,0.13728585839271545,-0.7920235395431519
1714858322345259300,5.92325927734375,-0.09720530360937119,0.07550056278705597,-0.7515435218811035
1714858322355208700,5.933208740234375,-0.0822916179895401,0.021172115579247475,-0.7536740303039551
1714858322365158100,5.943158203125,-0.08016108721494675,-0.031025802716612816,-0.7792403697967529
1714858322375107600,5.953107666015625,-0.07696529477834702,-0.06404897570610046,-0.8154593110084534
1714858322385057000,5.96305712890625,-0.03861580789089203,-0.08428898453712463,-0.833568811416626
1714858322395006500,5.97300634765625,0.040213704109191895,-0.14500901103019714,-0.8229161500930786
1714858322404955600,5.98295556640625,0.0966726765036583,-0.17909744381904602,-0.7685877084732056
1714858322414905000,5.992905029296875,0.0636495053768158,-0.10133320093154907,-0.6460824012756348
1714858322424854500,6.0028544921875,-0.015180006623268127,-0.00013315795513335615,-0.4894886314868927
1714858322434804000,6.012803955078125,-0.06418213248252869,0.10852373391389847,-0.3627222776412964
1714858322444753400,6.02275341796875,-0.07696529477834702,0.14580796658992767,-0.3147853910923004
1714858322454702800,6.032702880859375,-0.08655267208814621,0.10319741815328598,-0.3446127772331238
1714858322464652300,6.04265234375,-0.0822916179895401,0.04034686088562012,-0.42131176590919495
1714858322474601700,6.052601806640625,-0.05992107838392258,0.008388951420783997,-0.5544697046279907
1714858322484551200,6.06255126953125,0.015712639316916466,-0.043808966875076294,-0.7717835307121277
1714858322494500600,6.07250048828125,0.10626004636287689,-0.1322258561849594,-1.0061415433883667
1714858322504450000,6.082449951171875,0.15419691801071167,-0.019307903945446014,-1.185105800628662
1714858322514399500,6.0923994140625,0.15845796465873718,0.2619217038154602,-1.3097416162490845
1714858322524349000,6.102348876953125,0.12863057851791382,0.5399554967880249,-1.3587437868118286
1714858322534298400,6.11229833984375,0.08495477586984634,0.7040061354637146,-1.3235900402069092
1714858322544247800,6.122247802734375,0.05512739345431328,0.7455514073371887,-1.2181289196014404
1714858322554197200,6.132197265625,0.048735812306404114,0.7327682375907898,-1.0998847484588623
1714858322564146700,6.142146728515625,0.05193160101771355,0.6688523888587952,-1.0231857299804688
1714858322574096100,6.15209619140625,0.03275685757398605,0.6060018539428711,-0.94648677110672
1714858322584045600,6.162045654296875,-0.007723161485046148,0.5772397518157959,-0.8186551332473755
1714858322593995000,6.1719951171875,-0.03968106955289841,0.49095338582992554,-0.6663224101066589
1714858322603944200,6.181944091796875,-0.0727042406797409,0.3567301630973816,-0.49055391550064087
1714858322613893600,6.1918935546875,-0.11105373501777649,0.23209431767463684,-0.26684853434562683
1714858322623843000,6.201843017578125,-0.15472954511642456,0.1213068962097168,-0.015446322970092297
1714858322633792500,6.21179248046875,-0.17923060059547424,-0.043808966875076294,0.19867166876792908
1714858322643742000,6.221741943359375,-0.18029586970806122,-0.23449115455150604,0.33182963728904724
1714858322653691400,6.23169140625,-0.18775272369384766,-0.3910849094390869,0.3861580789089203
1714858322663640800,6.241640869140625,-0.22503694891929626,-0.4944154918193817,0.43089914321899414
1714858322673590300,6.25159033203125,-0.2655169665813446,-0.5391565561294556,0.5171855092048645
1714858322683539700,6.261539794921875,-0.2857569754123688,-0.5093291997909546,0.6162550449371338
1714858322693489200,6.2714892578125,-0.2889527678489685,-0.33675646781921387,0.6641919016838074
1714858322703438600,6.2814384765625,-0.2644517123699188,-0.10346373170614243,0.6418213248252869
1714858322713388000,6.291387939453125,-0.2324937880039215,0.020106852054595947,0.5949497222900391
1714858322723337500,6.30133740234375,-0.19414429366588593,0.01904158666729927,0.5800360441207886
1714858322733287000,6.311286865234375,-0.16538217663764954,-0.02996053919196129,0.6098634600639343
1714858322743236400,6.321236328125,-0.1856221854686737,-0.08002793043851852,0.6876276731491089
1714858322753185800,6.331185791015625,-0.2420811653137207,-0.15353111922740936,0.8111982345581055
1714858322763135200,6.34113525390625,-0.2697780132293701,-0.30053749680519104,0.93902987241745
1714858322773084700,6.351084716796875,-0.2559295892715454,-0.5018723607063293,1.0487520694732666
1714858322783034000,6.3610341796875,-0.22503694891929626,-0.7404913902282715,1.1371688842773438
1714858322792983600,6.370983642578125,-0.19201377034187317,-0.9322388172149658,1.2394342422485352
1714858322802933000,6.38093310546875,-0.1856221854686737,-1.1005505323410034,1.378983736038208
1714858322812882700,6.390882568359375,-0.20692746341228485,-1.2177294492721558,1.5472954511642456
1714858322822832000,6.40083203125,-0.23568958044052124,-1.1644662618637085,1.7102807760238647
1714858322832781600,6.410781494140625,-0.3070622384548187,-0.892824113368988,1.8210681676864624
1714858322842731000,6.42073095703125,-0.3922833502292633,-0.5306344628334045,1.847699761390686
1714858322852680400,6.430680419921875,-0.4966791868209839,-0.2600574791431427,1.7912408113479614
1714858322862630000,6.4406298828125,-0.6127929091453552,-0.24301326274871826,1.7347818613052368
1714858322872579600,6.45057958984375,-0.7065361142158508,-0.3399522602558136,1.6442344188690186
1714858322882529000,6.460529052734375,-0.7502118945121765,-0.6147902607917786,1.5227943658828735
1714858322892478500,6.470478515625,-0.7395592927932739,-1.0025461912155151,1.4620743989944458
1714858322902428000,6.480427978515625,-0.6660560965538025,-1.3903021812438965,1.4088112115859985
1714858322912377300,6.49037744140625,-0.5616602301597595,-1.7908413410186768,1.3203942775726318
1714858322922326800,6.500326904296875,-0.5243760347366333,-2.017742395401001,1.2255858182907104
1714858322932276200,6.510276123046875,-0.58403080701828,-1.7386434078216553,1.130777359008789
1714858322942226000,6.520225830078125,-0.5882918238639832,-1.0259820222854614,0.9954888820648193
1714858322952175400,6.53017529296875,-0.4625907242298126,-0.3772364854812622,0.8442214131355286
1714858322962124800,6.540124755859375,-0.22290641069412231,0.12982900440692902,0.7611308693885803
1714858322972074200,6.55007421875,0.04767054691910744,0.4398207366466522,0.7387603521347046
1714858322982023700,6.560023681640625,0.2287653684616089,0.543151319026947,0.6652571558952332
1714858322991973000,6.56997314453125,0.3587275445461273,0.5037365555763245,0.5342296957969666
1714858323001922800,6.5799228515625,0.5238434076309204,0.32583752274513245,0.38935387134552
1714858323011872300,6.589872314453125,0.7134603261947632,0.12237215787172318,0.22743378579616547
1714858323021821700,6.59982177734375,0.7816371917724609,0.05099949613213539,0.04740423336625099
1714858323031771100,6.609771240234375,0.7219824194908142,-0.005459476262331009,-0.06764423847198486
1714858323041720600,6.619720458984375,0.6111950278282166,-0.10879004746675491,-0.12516847252845764
1714858323051670000,6.629669921875,0.5163865685462952,0.028628960251808167,-0.21252009272575378
1714858323061619500,6.639619384765625,0.49934232234954834,0.24913853406906128,-0.37337490916252136
1714858323071569200,6.649569091796875,0.47910231351852417,0.45793020725250244,-0.5768402814865112
1714858323081518600,6.6595185546875,0.448209673166275,0.7093324065208435,-0.7856319546699524
1714858323091468000,6.669468017578125,0.4588623046875,0.8840356469154358,-1.0242509841918945
1714858323101417500,6.67941748046875,0.46631917357444763,0.8946883082389832,-1.2969584465026855
1714858323111367000,6.689366943359375,0.39920756220817566,0.920254647731781,-1.5483607053756714
1714858323121316400,6.69931640625,0.2948117256164551,0.8797746300697327,-1.7070850133895874
1714858323131266000,6.70926611328125,0.23941799998283386,0.9255809187889099,-1.7347818613052368
1714858323141215500,6.719215576171875,0.25965800881385803,0.9564735889434814,-1.6729965209960938
1714858323151165000,6.7291650390625,0.2522011697292328,1.0715221166610718,-1.6186680793762207
1714858323161114400,6.7391142578125,0.2138516753911972,1.09708833694458,-1.587775468826294
1714858323171063800,6.749063720703125,0.17337165772914886,1.0789788961410522,-1.5494259595870972
1714858323181013200,6.75901318359375,0.21172115206718445,0.9319725036621094,-1.3960280418395996
1714858323190962700,6.768962646484375,0.29268118739128113,0.7807050943374634,-1.1787142753601074
1714858323200912100,6.778912109375,0.4119907021522522,0.828641951084137,-1.0487520694732666
1714858323210861600,6.788861572265625,0.5121254920959473,1.2259852886199951,-1.0508825778961182
1714858323220810800,6.798810791015625,0.6111950278282166,1.4837790727615356,-1.0434256792068481
1714858323230760200,6.80876025390625,0.588824450969696,1.474191665649414,-0.9273120164871216
1714858323240709600,6.818709716796875,0.5249086618423462,1.4017537832260132,-0.745151937007904
1714858323250659000,6.8286591796875,0.45566651225090027,1.2824442386627197,-0.5374255180358887
1714858323260608500,6.8386083984375,0.3033338189125061,1.1780483722686768,-0.3914843797683716
1714858323270558000,6.848557861328125,0.12650005519390106,1.0374336242675781,-0.26578328013420105
1714858323280507400,6.85850732421875,-0.03435475379228592,0.9127978086471558,-0.1315600574016571
1714858323290456800,6.868456787109375,-0.13662005960941315,0.8712524771690369,-0.02396843209862709
1714858323300406300,6.87840625,-0.1952095627784729,0.798814594745636,0.0751010850071907
1714858323310355700,6.888355712890625,-0.22716747224330902,0.6635261178016663,0.20080219209194183
1714858323320305200,6.89830517578125,-0.1909485012292862,0.47284388542175293,0.2956106662750244
1714858323330254600,6.908254638671875,-0.13129374384880066,0.20333220064640045,0.35100436210632324
1714858323340204000,6.9182041015625,-0.08868319541215897,-0.12903006374835968,0.4010717570781708
1714858323350153500,6.928153564453125,-0.05352949723601341,-0.44008705019950867,0.4319643974304199
1714858323360103000,6.93810302734375,-0.03861580789089203,-0.6265081763267517,0.44581282138824463
1714858323370052400,6.94805224609375,-0.07909582555294037,-0.6542050242424011,0.44900861382484436
1714858323380001800,6.958001708984375,-0.21118851006031036,-0.6137250065803528,0.5065328478813171
1714858323389951200,6.967951171875,-0.3741738498210907,-0.5988113284111023,0.6428865790367126
1714858323399900700,6.977900634765625,-0.4625907242298126,-0.5593965649604797,0.8367645740509033
1714858323409850000,6.98785009765625,-0.4551338851451874,-0.37936702370643616,1.0306426286697388
1714858323419799300,6.99779931640625,-0.4348938763141632,-0.15246586501598358,1.1744531393051147
1714858323429748700,7.007748779296875,-0.4679170548915863,-0.022503694519400597,1.2745879888534546
1714858323439698200,7.0176982421875,-0.4902876019477844,-0.051265813410282135,1.3523521423339844
1714858323449647600,7.027647705078125,-0.4540686309337616,-0.20679430663585663,1.41094172000885
1714858323459597000,7.03759716796875,-0.3645864725112915,-0.4720449447631836,1.4375733137130737
1714858323469546500,7.04754638671875,-0.26338642835617065,-0.8331693410873413,1.4056153297424316
1714858323479496000,7.057495849609375,-0.2186453640460968,-1.2922979593276978,1.3576785326004028
1714858323489445400,7.0674453125,-0.31878015398979187,-1.685380220413208,1.3512868881225586
1714858323499394800,7.077394775390625,-0.5542033910751343,-1.7205339670181274,1.3480911254882812
1714858323509344300,7.08734423828125,-0.772582471370697,-1.449957013130188,1.311872124671936
1714858323519293700,7.097293701171875,-0.8492814302444458,-1.1879020929336548,1.2213248014450073
1714858323529243100,7.1072431640625,-0.8045403361320496,-1.089897871017456,1.0828404426574707
1714858323539192600,7.117192626953125,-0.7065361142158508,-1.0504831075668335,0.9134635925292969
1714858323549142000,7.12714208984375,-0.6213150024414062,-0.9024114608764648,0.7238466143608093
1714858323559091500,7.137091552734375,-0.568051815032959,-0.6723145246505737,0.5257076025009155
1714858323569041000,7.147041015625,-0.5147886276245117,-0.4720449447631836,0.32650330662727356
1714858323578990300,7.156990234375,-0.3986749053001404,-0.34634384512901306,0.12836426496505737
1714858323588939800,7.166939697265625,-0.2324937880039215,-0.3452785909175873,-0.05699160322546959
1714858323598889200,7.17688916015625,-0.05352949723601341,-0.5125249624252319,-0.23702116310596466
1714858323608838700,7.186838623046875,0.17337165772914886,-0.8512787818908691,-0.39681071043014526
1714858323618787800,7.196787841796875,0.4631233811378479,-1.2667316198349,-0.5257076025009155
1714858323628737300,7.2067373046875,0.7241129875183105,-1.6193338632583618,-0.6386255621910095
1714858323638686700,7.216686767578125,0.873249888420105,-1.782319188117981,-0.7568697929382324
1714858323648636200,7.22663623046875,0.8540751338005066,-1.70242440700531,-0.8740488290786743
1714858323658585600,7.236585693359375,0.5845634341239929,-1.4094769954681396,-0.972053050994873
1714858323668535000,7.24653515625,0.17976324260234833,-1.0462220907211304,-1.0253162384033203
1714858323678484500,7.256484375,-0.18029586970806122,-0.755405068397522,-1.0210552215576172
1714858323688434000,7.266433837890625,-0.4689823091030121,-0.508263885974884,-0.9645962119102478
1714858323698383400,7.27638330078125,-0.6660560965538025,-0.3175817131996155,-0.8921582698822021
1714858323708332800,7.286332763671875,-0.756603479385376,-0.15566164255142212,-0.8442214131355286
1714858323718282200,7.2962822265625,-0.7374287843704224,-0.059787921607494354,-0.8325035572052002
1714858323728231700,7.306231689453125,-0.6607297658920288,-0.0672447681427002,-0.8474172353744507
1714858323738181000,7.31618115234375,-0.5520728826522827,-0.15566164255142212,-0.8580698370933533
1714858323748130600,7.326130615234375,-0.4263717830181122,-0.26112276315689087,-0.8452867269515991
1714858323758080000,7.336080078125,-0.3177148699760437,-0.2728406488895416,-0.8080024719238281
1714858323768029400,7.346029541015625,-0.2474074810743332,-0.1609879732131958,-0.7398256063461304
1714858323777979000,7.355978759765625,-0.2324937880039215,0.09574057161808014,-0.6578003168106079
1714858323787928300,7.36592822265625,-0.27723485231399536,0.43342915177345276,-0.5853623747825623
1714858323797877800,7.375877685546875,-0.3326285779476166,0.7679219245910645,-0.5438171029090881
1714858323807827200,7.3858271484375,-0.37204334139823914,1.0640652179718018,-0.561926543712616
1714858323817776400,7.3957763671875,-0.3890875577926636,1.2717915773391724,-0.6119939684867859
1714858323827725800,7.405725830078125,-0.34328120946884155,1.4017537832260132,-0.6514087319374084
1714858323837675300,7.41567529296875,-0.26871275901794434,1.5104106664657593,-0.6791055798530579
1714858323847624700,7.425624755859375,-0.21012325584888458,1.5796527862548828,-0.6791055798530579
1714858323857574100,7.43557421875,-0.1525990217924118,1.5434339046478271,-0.623711884021759
1714858323867523600,7.445523681640625,-0.09614004194736481,1.5295854806900024,-0.5363602638244629
1714858323877473000,7.45547314453125,-0.032224226742982864,1.628654956817627,-0.49161916971206665
1714858323887422500,7.46542236328125,0.021038956940174103,1.6638087034225464,-0.47244441509246826
1714858323897372000,7.475371826171875,0.05299686640501022,1.5093454122543335,-0.4362254738807678
1714858323907321300,7.4853212890625,0.06897582113742828,1.2526168823242188,-0.3669833242893219
1714858323917270800,7.495270751953125,0.0732368752360344,1.0779136419296265,-0.24234747886657715
1714858323927220200,7.50522021484375,0.08815056830644608,1.1578084230422974,-0.09001477807760239
1714858323937169700,7.515169677734375,0.11158636957406998,1.4624738693237305,-0.01225053146481514
1714858323947119000,7.525119140625,0.16058848798274994,1.742638111114502,-0.030360013246536255
1714858323957068500,7.535068603515625,0.25433170795440674,1.8267940282821655,-0.08894951641559601
1714858323967018000,7.54501806640625,0.36192330718040466,1.757551908493042,-0.14327795803546906
1714858323976967400,7.554967529296875,0.41944757103919983,1.670200228691101,-0.1976063996553421
1714858323986916900,7.564916748046875,0.48549389839172363,1.737311840057373,-0.2530001103878021
1714858323996866300,7.5748662109375,0.5451486706733704,1.8385119438171387,-0.3062632977962494
1714858324006816000,7.58481591796875,0.5536707639694214,1.7618129253387451,-0.3616569936275482
1714858324016765400,7.594765380859375,0.534496009349823,1.5349117517471313,-0.4010717570781708
1714858324026715000,7.60471484375,0.4972118139266968,1.255812644958496,-0.39787596464157104
1714858324036664300,7.614664306640625,0.3981422781944275,0.9266462326049805,-0.32650330662727356
1714858324046613800,7.62461376953125,0.25326642394065857,0.5772397518157959,-0.24128220975399017
1714858324056563200,7.634563232421875,0.10626004636287689,0.38762280344963074,-0.1784316599369049
1714858324066512600,7.6445126953125,-0.017310533672571182,0.45686495304107666,-0.17523586750030518
1714858324076462300,7.65446240234375,-0.06524740159511566,0.6518082022666931,-0.2530001103878021
1714858324086411800,7.664411865234375,-0.06524740159511566,0.8701872229576111,-0.40746334195137024
1714858324096361200,7.674361328125,-0.016245270147919655,1.0651304721832275,-0.623711884021759
1714858324106310700,7.684310546875,0.05938844755291939,1.1950926780700684,-0.8410256505012512
1714858324116260000,7.694260009765625,0.09028109163045883,1.191896915435791,-0.9986846446990967
1714858324126209500,7.70420947265625,0.05725792050361633,1.0289114713668823,-1.059404730796814
1714858324136159200,7.7141591796875,0.016777902841567993,0.7870966792106628,-0.9837709665298462
1714858324146108700,7.724108642578125,-0.017310533672571182,0.5761744976043701,-0.8101329803466797
1714858324156058000,7.73405810546875,-0.0684431865811348,0.34394699335098267,-0.6141244769096375
1714858324166007600,7.744007568359375,-0.14514216780662537,0.06804371625185013,-0.42131176590919495
1714858324175957000,7.75395703125,-0.228232741355896,-0.23662169277668,-0.24128220975399017
1714858324185906400,7.763906494140625,-0.29534435272216797,-0.5146554708480835,-0.07297056168317795
1714858324195856000,7.77385595703125,-0.3368896245956421,-0.7394261360168457,0.04740423336625099
1714858324205805600,7.7838056640625,-0.35393384099006653,-0.9269125461578369,0.10066741704940796
1714858324215755000,7.793755126953125,-0.34328120946884155,-1.0440915822982788,0.14327795803546906
1714858324225704400,7.803704345703125,-0.31984540820121765,-1.0685925483703613,0.2348906397819519
1714858324235654000,7.81365380859375,-0.30493173003196716,-1.0068073272705078,0.34993910789489746
1714858324245603300,7.823603271484375,-0.2985401451587677,-0.9013462066650391,0.45326969027519226
1714858324255552800,7.833552734375,-0.29747486114501953,-0.8054724931716919,0.5459476113319397
1714858324265502200,7.843502197265625,-0.2878875136375427,-0.7372955679893494,0.6301034688949585
1714858324275452000,7.853451904296875,-0.2644517123699188,-0.7213166356086731,0.7227813601493835
1714858324285401300,7.8634013671875,-0.22929799556732178,-0.7841671705245972,0.8495477437973022
1714858324295350800,7.873350830078125,-0.16112112998962402,-0.9088030457496643,1.0157288312911987
1714858324305300200,7.88330029296875,-0.08655267208814621,-1.1048115491867065,1.2096068859100342
1714858324315249700,7.893249755859375,-0.036485280841588974,-1.388171672821045,1.4173332452774048
1714858324325199000,7.90319921875,-0.0023968431632965803,-1.727990746498108,1.6389081478118896
1714858324335148500,7.9131484375,0.0007989477599039674,-2.0560920238494873,1.860482931137085
1714858324345097700,7.92309765625,-0.019441060721874237,-2.3128204345703125,2.03944730758667
1714858324355047200,7.933047119140625,-0.04713791608810425,-2.450239419937134,2.1406471729278564
1714858324364996600,7.94299658203125,-0.07909582555294037,-2.469414234161377,2.1267988681793213
1714858324374946000,7.952946044921875,-0.10040109604597092,-2.3916499614715576,2.0224030017852783
1714858324384895500,7.9628955078125,-0.09400951862335205,-2.2148163318634033,1.8487650156021118
1714858324394845000,7.972844970703125,-0.04287686198949814,-1.9154771566390991,1.6325165033340454
1714858324404794400,7.98279443359375,0.03808317333459854,-1.4904370307922363,1.399223804473877
1714858324414743800,7.992743896484375,0.11158636957406998,-1.035569429397583,1.136103630065918
1714858324424693200,8.002693359375,0.1435442715883255,-0.6520745158195496,0.8442214131355286
1714858324434642700,8.012642578125,0.14460954070091248,-0.3250385820865631,0.5352949500083923
1714858324444592000,8.022592041015624,0.14034847915172577,-0.022503694519400597,0.25193485617637634
1714858324454541600,8.03254150390625,0.12650005519390106,0.2384859025478363,0.054861076176166534
1714858324464491000,8.042490966796874,0.08602003753185272,0.4174501895904541,-0.042077913880348206
1714858324474440400,8.0524404296875,0.025300011038780212,0.4451470375061035,-0.062317922711372375
1714858324484390000,8.062389892578125,-0.027963170781731606,0.33435961604118347,-0.01970737800002098
1714858324494339300,8.07233935546875,-0.07909582555294037,0.15006901323795319,0.06657897680997849
1714858324504288800,8.082288818359375,-0.1291632205247879,-0.06511423736810684,0.15712638199329376
1714858324514238200,8.09223828125,-0.17923060059547424,-0.22383852303028107,0.221042200922966
1714858324524187600,8.102187744140625,-0.20799273252487183,-0.2824280261993408,0.2593916952610016
1714858324534137000,8.11213720703125,-0.21012325584888458,-0.2600574791431427,0.26471802592277527
1714858324544086300,8.122086181640626,-0.1771000772714615,-0.20466378331184387,0.23915168642997742
1714858324554035700,8.13203564453125,-0.10998847335577011,-0.12157320976257324,0.19441060721874237
1714858324563985200,8.141985107421876,-0.029028434306383133,-0.020373167470097542,0.12516847252845764
1714858324573934600,8.1519345703125,0.048735812306404114,0.010519478470087051,0.03249054029583931
1714858324583884000,8.161884033203124,0.09986846894025803,-0.00013315795513335615,-0.08042740821838379
1714858324593833500,8.17183349609375,0.1201084777712822,0.022237379103899002,-0.20293273031711578
1714858324603783000,8.181782958984375,0.11904320865869522,0.05632581561803818,-0.335025429725647
1714858324613732400,8.191732421875,0.10519478470087051,0.01584579609334469,-0.4788359999656677
1714858324623681800,8.201681884765625,0.0870852991938591,-0.1332911103963852,-0.6428865790367126
1714858324633631200,8.21163134765625,0.07110634446144104,-0.3218427896499634,-0.8271772265434265
1714858324643580700,8.22158056640625,0.0540621280670166,-0.4986765384674072,-1.0135983228683472
1714858324653530000,8.231530029296875,0.013582111336290836,-0.6488786935806274,-1.2042804956436157
1714858324663479600,8.2414794921875,-0.06950845569372177,-0.763927161693573,-1.4098764657974243
1714858324673429000,8.251428955078126,-0.16005586087703705,-0.8843019604682922,-1.6655397415161133
1714858324683378400,8.26137841796875,-0.1994706094264984,-1.1293126344680786,-2.0128157138824463
1714858324693328000,8.271327880859374,-0.1387505829334259,-1.5000243186950684,-2.445312738418579
1714858324703277300,8.28127734375,0.07217161357402802,-1.7375781536102295,-2.8447866439819336
1714858324713226800,8.291226806640625,0.41838228702545166,-1.7237297296524048,-3.0375993251800537
1714858324723176200,8.30117626953125,0.8562056422233582,-1.2752537727355957,-3.0844709873199463
1714858324733125600,8.311125732421875,1.1992205381393433,-0.8352998495101929,-3.0919277667999268
1714858324743074800,8.32107470703125,1.1779152154922485,-0.8715187907218933,-3.054643392562866
1714858324753024300,8.331024169921875,0.7624624371528625,-1.2763190269470215,-2.901245594024658
1714858324762973700,8.3409736328125,0.3981422781944275,-1.2656663656234741,-2.613624334335327
1714858324772923100,8.350923095703125,0.2522011697292328,-0.8363651037216187,-2.2855231761932373
1714858324782872600,8.36087255859375,0.15845796465873718,-0.39001965522766113,-1.9659440517425537
1714858324792822000,8.370822021484376,0.12650005519390106,0.08508793264627457,-1.7188029289245605
1714858324802771500,8.380771484375,0.1669800728559494,0.7327682375907898,-1.5472954511642456
1714858324812721000,8.390720947265624,0.2660495936870575,1.2526168823242188,-1.3885711431503296
1714858324822670300,8.40067041015625,0.32996541261672974,1.574326515197754,-1.2202595472335815
1714858324832619800,8.410619873046874,0.34807488322257996,1.5530211925506592,-1.130777359008789
1714858324842569200,8.4205693359375,0.33422645926475525,1.2547473907470703,-1.186171054840088
1714858324852518700,8.4305185546875,0.24580958485603333,0.8851009011268616,-1.3033500909805298
1714858324862468000,8.440468017578125,0.09773793816566467,0.5282375812530518,-1.4013543128967285
1714858324872417500,8.45041748046875,-0.11105373501777649,0.44727757573127747,-1.4343775510787964
1714858324882367000,8.460366943359375,-0.3784348964691162,0.7167892456054688,-1.356613278388977
1714858324892316400,8.47031640625,-0.6554034352302551,1.0992189645767212,-1.2074763774871826
1714858324902265900,8.480265869140625,-0.9419593811035156,1.2994884252548218,-1.0295772552490234
1714858324912215300,8.49021533203125,-1.2317110300064087,1.2025494575500488,-0.8026761412620544
1714858324922164700,8.500164794921876,-1.488439679145813,0.8712524771690369,-0.3989412188529968
1714858324932114200,8.5101142578125,-1.6705996990203857,0.4419512450695038,0.13369058072566986
1714858324942063400,8.5200634765625,-1.798431396484375,0.11598058044910431,0.623711884021759
1714858324952012800,8.5300126953125,-1.9028271436691284,-0.2557964324951172,1.0807099342346191
1714858324961962200,8.539962158203124,-1.9433071613311768,-0.6009418368339539,1.4929670095443726
1714858324971911700,8.54991162109375,-1.875130295753479,-0.5274386405944824,1.8413082361221313
1714858324981861000,8.559861083984375,-1.6855133771896362,-0.3974764943122864,2.2684788703918457
1714858324991810600,8.569810546875,-1.3723258972167969,-0.22064273059368134,2.6658222675323486
1714858325001760000,8.579760009765625,-0.9941573143005371,-0.26644906401634216,2.7563695907592773
1714858325011709400,8.58970947265625,-0.6554034352302551,-0.40280282497406006,2.4921844005584717
1714858325021659000,8.599658935546875,-0.40506649017333984,-0.09707214683294296,2.019207239151001
1714858325031608300,8.6096083984375,-0.27403905987739563,0.8094671964645386,1.3672659397125244
1714858325041557800,8.619557861328126,-0.06950845569372177,1.9056235551834106,0.9496825337409973
1714858325051507200,8.629507080078126,0.22237378358840942,2.9644956588745117,0.850612998008728
1714858325061456600,8.63945654296875,0.5451486706733704,3.8838181495666504,0.9038761854171753
1714858325071406000,8.649406005859374,0.8029424548149109,4.517650127410889,0.9986846446990967
1714858325081355500,8.65935546875,0.9211867451667786,4.508062362670898,1.2852405309677124
1714858325091305000,8.669304931640625,0.8625972270965576,3.051847219467163,1.8636786937713623
1714858325101254400,8.67925439453125,0.6005423665046692,-0.15353111922740936,2.694584369659424
1714858325111203800,8.689203857421875,0.1808284968137741,-2.7442522048950195,3.5553174018859863
1714858325121153300,8.6991533203125,-0.20266640186309814,-3.1767492294311523,4.103928089141846
1714858325131102700,8.709102783203125,-0.4029359817504883,-2.0837888717651367,4.258391380310059
1714858325141052000,8.719052001953125,-0.4348938763141632,-0.9641967415809631,4.265848159790039
1714858325151001300,8.72900146484375,-0.3326285779476166,0.08721846342086792,4.0709052085876465
1714858325160950800,8.73895068359375,-0.2697780132293701,0.8882967233657837,3.590471029281616
1714858325170900200,8.748900146484376,-0.3699128031730652,1.029976725578308,2.9246814250946045
1714858325180849700,8.758849609375,-0.5488771200180054,0.6603302955627441,2.2556958198547363
1714858325190799000,8.768799072265624,-0.6564686894416809,0.27044379711151123,1.6783229112625122
1714858325200748500,8.77874853515625,-0.6340981721878052,0.02756369672715664,1.173387885093689
1714858325210698000,8.788697998046874,-0.4870918095111847,0.007323687430471182,0.6727139949798584
1714858325220647400,8.7986474609375,-0.24953800439834595,0.0691089779138565,0.16138744354248047
1714858325230596900,8.808596923828125,-0.005592633970081806,-0.05339634045958519,-0.343547523021698
1714858325240546300,8.81854638671875,0.1627190262079239,-0.3623228073120117,-0.8239814043045044
1714858325250495700,8.828495849609375,0.26391905546188354,-0.7404913902282715,-1.2511521577835083
1714858325260445200,8.838445068359375,0.35659700632095337,-1.0462220907211304,-1.5717965364456177
1714858325270394600,8.84839453125,0.4492749273777008,-1.2006852626800537,-1.7283902168273926
1714858325280344000,8.858343994140625,0.5270391702651978,-1.1389000415802002,-1.6932365894317627
1714858325290293500,8.86829345703125,0.5547360181808472,-0.7170555591583252,-1.3885711431503296
1714858325300243000,8.878242919921876,0.5419528484344482,0.06378266215324402,-0.9656614661216736
1714858325310192400,8.8881923828125,0.4908202290534973,0.920254647731781,-0.9198551774024963
1714858325320141800,8.898141845703124,0.3129211962223053,1.6169370412826538,-1.093493103981018
1714858325330091000,8.908091064453124,0.05512739345431328,1.8449034690856934,-1.3640700578689575
1714858325340040400,8.91804052734375,-0.19840535521507263,1.6616780757904053,-1.6016238927841187
1714858325349990000,8.927989990234375,-0.3976096510887146,1.318663239479065,-1.6911060810089111
1714858325359939300,8.937939208984375,-0.5328981280326843,1.050216794013977,-1.604819655418396
1714858325369888800,8.947888671875,-0.5808349847793579,0.7956187725067139,-1.4503564834594727
1714858325379838200,8.957838134765625,-0.4902876019477844,0.4504733681678772,-1.2490216493606567
1714858325389787600,8.96778759765625,-0.22929799556732178,0.2054627239704132,-1.056208848953247
1714858325399737000,8.977737060546875,0.07217161357402802,0.23955115675926208,-0.909202516078949
1714858325409686500,8.9876865234375,0.251135915517807,0.43342915177345276,-0.8165245652198792
1714858325419636000,8.997635986328126,0.31505173444747925,0.669917643070221,-0.7483476996421814
1714858325429585400,9.00758544921875,0.2894853949546814,0.9191893935203552,-0.6183855533599854
1714858325439534800,9.017534912109374,0.2191779911518097,1.0768483877182007,-0.4554001986980438
1714858325449484300,9.027484375,0.14993585646152496,1.1503515243530273,-0.3105243444442749
1714858325459433700,9.037433837890624,0.07430213689804077,1.1141326427459717,-0.18695376813411713
1714858325469383200,9.047383056640625,-0.006657897960394621,0.8978840708732605,-0.11238531768321991
1714858325479332600,9.05733251953125,-0.011984216049313545,0.6784397959709167,0.03994738683104515
1714858325489282000,9.067281982421875,0.015712639316916466,0.5356944799423218,0.32650330662727356
1714858325499231500,9.0772314453125,-0.010918952524662018,0.2246374636888504,0.825046718120575
1714858325509181000,9.087180908203125,-0.048203181475400925,-0.22383852303028107,1.1712573766708374
1714858325519130400,9.09713037109375,0.00612526573240757,-0.3580617308616638,1.3704617023468018
1714858325529079800,9.107079833984375,0.18402428925037384,-0.24940484762191772,1.433312177658081
1714858325539029200,9.117029296875,0.3821633458137512,-0.14500901103019714,1.4152027368545532
1714858325548979000,9.12697900390625,0.5099949836730957,-0.0949416235089302,1.3353079557418823
1714858325558928400,9.136928466796874,0.5291697382926941,-0.1759016513824463,1.1787142753601074
1714858325568877800,9.1468779296875,0.4769718050956726,-0.4763059914112091,1.0285120010375977
1714858325578827300,9.1568271484375,0.4460791349411011,-0.8480830192565918,0.9816404581069946
1714858325588776700,9.166776611328125,0.43755704164505005,-1.0611357688903809,1.0647310018539429
1714858325598726100,9.17672607421875,0.46099284291267395,-1.0004156827926636,1.2373037338256836
1714858325608675800,9.18667578125,0.4929507374763489,-0.725577712059021,1.4066805839538574
1714858325618625300,9.196625244140625,0.5121254920959473,-0.44115230441093445,1.5142722129821777
1714858325628574700,9.20657470703125,0.5089297294616699,-0.2547311782836914,1.5409038066864014
1714858325638524200,9.216524169921875,0.45673179626464844,-0.19188061356544495,1.466335415840149
1714858325648473600,9.2264736328125,0.39494648575782776,-0.31971225142478943,1.2937626838684082
1714858325658423000,9.236423095703126,0.4077296555042267,-0.5988113284111023,1.0881668329238892
1714858325668372500,9.24637255859375,0.5142560005187988,-0.7490134835243225,0.8665919899940491
1714858325678322200,9.256322265625,0.6143907904624939,-0.6936197876930237,0.6769750714302063
1714858325688271600,9.266271728515624,0.6293044686317444,-0.6787061095237732,0.6034718751907349
1714858325698221000,9.276220947265625,0.5856286883354187,-0.7287734746932983,0.6173202991485596
1714858325708170500,9.28617041015625,0.5589970946311951,-0.6648576855659485,0.6183855533599854
1714858325718120000,9.296119873046875,0.5728455185890198,-0.46565335988998413,0.5672528743743896
1714858325728069400,9.3060693359375,0.5781718492507935,-0.28988486528396606,0.4617917835712433
1714858325738019000,9.31601904296875,0.5398223400115967,-0.1663142889738083,0.31691592931747437
1714858325747968500,9.325968505859375,0.46099284291267395,-0.06085318699479103,0.14008216559886932
1714858325757918000,9.33591796875,0.35766226053237915,-0.02996053919196129,-0.04846949502825737
1714858325767867400,9.345867431640626,0.23941799998283386,-0.15033532679080963,-0.19547587633132935
1714858325777816800,9.35581689453125,0.1531316488981247,-0.29095011949539185,-0.24341274797916412
1714858325787766300,9.365766357421874,0.11478215456008911,-0.20253324508666992,-0.20080219209194183
1714858325797715700,9.3757158203125,0.0679105594754219,0.032890014350414276,-0.11558110266923904
1714858325807665200,9.3856650390625,-0.015180006623268127,0.25126907229423523,-0.04420844092965126
1714858325817614600,9.395614501953125,-0.10892320424318314,0.4036017656326294,-0.046338967978954315
1714858325827564000,9.40556396484375,-0.20160114765167236,0.4877575933933258,-0.1507348120212555
1714858325837513500,9.415513427734375,-0.2420811653137207,0.48136600852012634,-0.33715593814849854
1714858325847463000,9.425462890625,-0.18881797790527344,0.39614492654800415,-0.5363602638244629
1714858325857412400,9.435412353515625,-0.06205160543322563,0.27896592020988464,-0.6471476554870605
1714858325867361800,9.44536181640625,0.0774979293346405,0.23635536432266235,-0.645017147064209
1714858325877311200,9.455311279296875,0.1243695318698883,0.20226693153381348,-0.5640571117401123
1714858325887260700,9.4652607421875,0.04660528525710106,0.10958899557590485,-0.45007389783859253
1714858325897210000,9.475210205078126,-0.07376950979232788,0.024367906153202057,-0.35100436210632324
1714858325907159300,9.4851591796875,-0.1621863842010498,-0.01717737689614296,-0.29454538226127625
1714858325917108700,9.495108642578124,-0.2090579867362976,-0.01078579481691122,-0.3062632977962494
1714858325927058200,9.50505810546875,-0.228232741355896,0.037151068449020386,-0.3659180700778961
1714858325937007600,9.515007568359374,-0.20692746341228485,0.102132149040699,-0.4319643974304199
1714858325946957000,9.52495703125,-0.11851058155298233,0.15219953656196594,-0.5044023394584656
1714858325956906500,9.534906494140625,-0.007723161485046148,0.15539532899856567,-0.586427628993988
1714858325966856000,9.54485595703125,0.1009337306022644,0.17563533782958984,-0.6514087319374084
1714858325976805400,9.554805419921875,0.1861548274755478,0.26831328868865967,-0.6801708340644836
1714858325986754800,9.5647548828125,0.21491694450378418,0.3854922652244568,-0.6759097576141357
1714858325996704300,9.574704345703125,0.1904158741235733,0.4312986135482788,-0.6631265878677368
1714858326006653700,9.58465380859375,0.16378428041934967,0.36844804883003235,-0.6854971647262573
1714858326016603100,9.59460302734375,0.15100112557411194,0.2246374636888504,-0.7387603521347046
1714858326026552600,9.604552490234376,0.14993585646152496,0.029694223776459694,-0.787762463092804
1714858326036502000,9.614501953125,0.14034847915172577,-0.1279647946357727,-0.774979293346405
1714858326046451500,9.624451416015624,0.11904320865869522,-0.16737954318523407,-0.6972150802612305
1714858326056401000,9.63440087890625,0.09454214572906494,-0.14927007257938385,-0.5885581374168396
1714858326066350300,9.644350341796875,0.06151897460222244,-0.14500901103019714,-0.47670549154281616
1714858326076299800,9.6542998046875,0.027430538088083267,-0.10665952414274216,-0.3797664940357208
1714858326086249200,9.664249267578125,-0.017310533672571182,-0.03848264738917351,-0.29028433561325073
1714858326096198700,9.67419873046875,-0.052464235574007034,0.008388951420783997,-0.21465063095092773
1714858326106147800,9.68414794921875,-0.07590003311634064,0.0019973693415522575,-0.18908429145812988
1714858326116097300,9.69409716796875,-0.06205160543322563,-0.01078579481691122,-0.21571588516235352
1714858326126046700,9.704046630859375,0.012516847811639309,0.004127896390855312,-0.26152223348617554
1714858326135996200,9.71399609375,0.07643266767263412,0.04780370742082596,-0.31265488266944885
1714858326145945600,9.723945556640626,0.10199899226427078,0.11704584211111069,-0.35100436210632324
1714858326155895000,9.73389501953125,0.0870852991938591,0.16072164475917816,-0.3669833242893219
1714858326165844500,9.743844482421874,0.04980107396841049,0.1447426974773407,-0.34993910789489746
1714858326175794000,9.7537939453125,0.021038956940174103,0.06804371625185013,-0.2956106662750244
1714858326185743400,9.763743408203124,0.0018642114009708166,-0.03209106624126434,-0.21997694671154022
1714858326195692800,9.77369287109375,-0.0141147430986166,-0.11198583990335464,-0.13262532651424408
1714858326205642200,9.783642333984375,-0.016245270147919655,-0.16844481229782104,-0.038882121443748474
1714858326215591700,9.793591796875,0.0050600022077560425,-0.180162712931633,0.061252661049366
1714858326225541000,9.803541015625,0.03808317333459854,-0.10346373170614243,0.15606112778186798
1714858326235490600,9.813490478515625,0.060453712940216064,0.012650005519390106,0.2348906397819519
1714858326245440000,9.82343994140625,0.06684529036283493,0.10958899557590485,0.2732401192188263
1714858326255389400,9.833389404296875,0.05512739345431328,0.1490037590265274,0.2540653645992279
1714858326265339000,9.8433388671875,0.04340949282050133,0.14154690504074097,0.2018674612045288
1714858326275288300,9.853288330078126,0.05086633935570717,0.12663321197032928,0.1454084813594818
1714858326285237800,9.86323779296875,0.0679105594754219,0.11065425723791122,0.09214530140161514
1714858326295187200,9.873187255859374,0.08815056830644608,0.06378266215324402,0.05699160322546959
1714858326305136400,9.883136474609374,0.11371689289808273,-0.011851058341562748,0.03994738683104515
1714858326315085800,9.8930859375,0.13715268671512604,-0.08855003863573074,0.02396843209862709
1714858326325035300,9.90303515625,0.1531316488981247,-0.15033532679080963,-0.010120004415512085
1714858326334984700,9.912984619140625,0.16165375709533691,-0.16418376564979553,-0.08149266988039017
1714858326344934100,9.92293408203125,0.15952323377132416,-0.10665952414274216,-0.2071937769651413
1714858326354883600,9.932883544921875,0.13502216339111328,-0.016112113371491432,-0.3723096549510956
1714858326364833000,9.9428330078125,0.0966726765036583,0.05632581561803818,-0.5310339331626892
1714858326374782500,9.952782470703125,0.05832318589091301,0.11491531878709793,-0.6663224101066589
1714858326384732000,9.96273193359375,0.044474758207798004,0.16604797542095184,-0.7813708782196045
1714858326394681300,9.972681396484376,0.05725792050361633,0.1873532384634018,-0.8708530068397522
1714858326404630800,9.982630859375,0.1009337306022644,0.15326480567455292,-0.9038761854171753
1714858326414580200,9.992580322265624,0.16165375709533691,0.07763108611106873,-0.8516782522201538
1714858326424529700,10.00252978515625,0.20639483630657196,-0.006524739786982536,-0.712128758430481
1714858326434479000,10.01247900390625,0.21065588295459747,-0.03635212033987045,-0.5214465260505676
1714858326444428500,10.022428466796875,0.15632744133472443,-0.020373167470097542,-0.3286338448524475
1714858326454378000,10.0323779296875,0.07110634446144104,-0.02143843099474907,-0.16671375930309296
1714858326464327400,10.042327392578125,-0.03328948840498924,-0.07363634556531906,-0.0655137151479721
1714858326474276900,10.05227685546875,-0.12703268229961395,-0.1045289933681488,-0.0037284228019416332
1714858326484226300,10.062226318359375,-0.17816534638404846,-0.01078579481691122,0.058056868612766266
1714858326494175500,10.072175537109375,-0.20160114765167236,0.15326480567455292,0.1272990107536316
1714858326504125000,10.082125,-0.2090579867362976,0.2672480046749115,0.18695376813411713
1714858326514074400,10.092074462890626,-0.20266640186309814,0.29387959837913513,0.22849905490875244
1714858326524023800,10.10202392578125,-0.17816534638404846,0.2992059290409088,0.26471802592277527
1714858326533973200,10.11197314453125,-0.1344895362854004,0.30240172147750854,0.29028433561325073
1714858326543922700,10.121922607421874,-0.08122635632753372,0.2619217038154602,0.29028433561325073
1714858326553872100,10.1318720703125,-0.016245270147919655,0.1777658760547638,0.27004432678222656
1714858326563821600,10.141821533203125,0.05725792050361633,0.07017423957586288,0.23595589399337769
1714858326573771000,10.15177099609375,0.11478215456008911,-0.020373167470097542,0.154995858669281
1714858326583720400,10.161720458984375,0.16165375709533691,-0.05446160212159157,0.04740423336625099
1714858326593670000,10.171669921875,0.18295903503894806,-0.05339634045958519,-0.046338967978954315
1714858326603619300,10.181619384765625,0.16911059617996216,-0.012916321866214275,-0.09534109383821487
1714858326613568800,10.19156884765625,0.14567480981349945,0.0552605502307415,-0.0985368862748146
1714858326623518200,10.201518310546875,0.1339569091796875,0.09893636405467987,-0.06870950758457184
1714858326633467600,10.211467529296876,0.1531316488981247,0.1255679577589035,-0.004793686326593161
1714858326643417000,10.2214169921875,0.1957421898841858,0.1213068962097168,0.08255793154239655
1714858326653366500,10.231366455078126,0.251135915517807,0.08189214020967484,0.1699095517396927
1714858326663316000,10.24131591796875,0.30120328068733215,-0.01078579481691122,0.23808641731739044
1714858326673265400,10.251265380859374,0.3235738277435303,-0.16737954318523407,0.2828274965286255
1714858326683214800,10.26121484375,0.30013802647590637,-0.30479857325553894,0.2924148738384247
1714858326693164000,10.2711640625,0.2468748539686203,-0.36977964639663696,0.27537065744400024
1714858326703113500,10.281113525390625,0.18295903503894806,-0.37084490060806274,0.22210747003555298
1714858326713063000,10.29106298828125,0.11265163123607635,-0.348474383354187,0.12942953407764435
1714858326723012400,10.301012451171875,0.05193160101771355,-0.31438592076301575,-0.0037284228019416332
1714858326732961800,10.3109619140625,-0.0002663159102667123,-0.2653838098049164,-0.16351796686649323
1714858326742911200,10.3209111328125,-0.03861580789089203,-0.18761955201625824,-0.3243727684020996
1714858326752860700,10.330860595703125,-0.05566002428531647,-0.11944268643856049,-0.4607265293598175
1714858326762810000,10.34081005859375,-0.05352949723601341,-0.09174583107233047,-0.5342296957969666
1714858326772759600,10.350759521484376,-0.04181159660220146,-0.06191844865679741,-0.5225118398666382
1714858326782709000,10.360708984375,-0.036485280841588974,-0.055526867508888245,-0.4383559823036194
1714858326792658400,10.370658447265624,-0.05033370852470398,-0.10133320093154907,-0.31372013688087463
1714858326802607900,10.38060791015625,-0.08442214131355286,-0.16205322742462158,-0.17630113661289215
1714858326812557300,10.390557373046875,-0.12277163565158844,-0.1844237744808197,-0.05592634156346321
1714858326822506800,10.4005068359375,-0.15366427600383759,-0.18335850536823273,0.011185267940163612
1714858326832456200,10.410456298828125,-0.16431692242622375,-0.1652490198612213,0.020772641524672508
1714858326842405600,10.420405517578125,-0.16325165331363678,-0.11731215566396713,-0.0037284228019416332
1714858326852355000,10.43035498046875,-0.15686006844043732,-0.07683213800191879,-0.04101264849305153
1714858326862304500,10.440304443359375,-0.13235901296138763,-0.051265813410282135,-0.07297056168317795
1714858326872254000,10.45025390625,-0.08442214131355286,-0.03635212033987045,-0.08681898564100266
1714858326882203400,10.460203369140626,-0.03009369783103466,-0.022503694519400597,-0.08362319320440292
1714858326892152600,10.470152587890626,0.015712639316916466,0.008388951420783997,-0.07190529257059097
1714858326902102000,10.48010205078125,0.05299686640501022,0.04780370742082596,-0.061252661049366
1714858326912051500,10.490051513671874,0.08069372177124023,0.07017423957586288,-0.062317922711372375
1714858326922001000,10.5000009765625,0.0870852991938591,0.04354264959692955,-0.058056868612766266
1714858326931950300,10.509950439453124,0.0732368752360344,0.003062632866203785,-0.03994738683104515
1714858326941899800,10.519899658203125,0.04234423115849495,-0.026764748618006706,-0.011185267940163612
1714858326951849200,10.52984912109375,0.0050600022077560425,-0.043808966875076294,0.017576850950717926
1714858326961798700,10.539798583984375,-0.03009369783103466,-0.05446160212159157,0.03568633273243904
1714858326971748000,10.549748046875,-0.05352949723601341,-0.05020054802298546,0.04527370631694794
1714858326981697500,10.559697509765625,-0.06311687082052231,-0.039547912776470184,0.04420844092965126
1714858326991647000,10.56964697265625,-0.05033370852470398,-0.02889527566730976,0.042077913880348206
1714858327001596400,10.579596435546875,-0.00985368900001049,-0.01504684891551733,0.05273054912686348
1714858327011545900,10.5895458984375,0.040213704109191895,-0.009720530360937119,0.06870950758457184
1714858327021495300,10.599495361328126,0.08388951420783997,-0.03315633162856102,0.09001477807760239
1714858327031444700,10.60944482421875,0.12330426275730133,-0.07257108390331268,0.11877689510583878
1714858327041394200,10.619394287109374,0.1478053331375122,-0.10879004746675491,0.15180006623268127
1714858327051343600,10.629343505859374,0.15632744133472443,-0.1567269116640091,0.18482324481010437
1714858327061293000,10.63929296875,0.1531316488981247,-0.2227732539176941,0.211454838514328
1714858327071242500,10.649242431640625,0.1296958476305008,-0.2941459119319916,0.22317273914813995
1714858327081192000,10.65919189453125,0.0913463607430458,-0.36125752329826355,0.2167811542749405
1714858327091141000,10.66914111328125,0.056192658841609955,-0.41878175735473633,0.19654114544391632
1714858327101090600,10.679090576171875,0.03914843872189522,-0.42304283380508423,0.17310534417629242
1714858327111040000,10.6890400390625,0.03701791167259216,-0.36658385396003723,0.14434322714805603
1714858327120989400,10.698989501953125,0.04980107396841049,-0.28562381863594055,0.10918952524662018
1714858327130939000,10.70893896484375,0.07110634446144104,-0.19507640600204468,0.0708400309085846
1714858327140888300,10.718888427734376,0.09560741484165192,-0.1237037405371666,0.025033695623278618
1714858327150837800,10.728837646484376,0.11904320865869522,-0.1002679392695427,-0.038882121443748474
1714858327160787200,10.738787109375,0.15526217222213745,-0.10879004746675491,-0.10705899447202682
1714858327170736600,10.748736572265624,0.2000032514333725,-0.1279647946357727,-0.16245271265506744
1714858327180686000,10.75868603515625,0.24900537729263306,-0.1759016513824463,-0.21358536183834076
1714858327190635500,10.768635498046875,0.3033338189125061,-0.2696448564529419,-0.2689790725708008
1714858327200585000,10.7785849609375,0.3597927987575531,-0.37084490060806274,-0.30413275957107544
1714858327210534400,10.788534423828125,0.38962018489837646,-0.4198470413684845,-0.2998717129230499
1714858327220483800,10.79848388671875,0.3736412227153778,-0.44115230441093445,-0.2828274965286255
1714858327230433300,10.808433349609375,0.3310306668281555,-0.4858933687210083,-0.2625874876976013
1714858327240382700,10.8183828125,0.280963271856308,-0.5221123695373535,-0.23915168642997742
1714858327250332200,10.828332275390625,0.24794010818004608,-0.48695865273475647,-0.20825904607772827
1714858327260281600,10.838281494140626,0.2553969621658325,-0.42197754979133606,-0.1645832359790802
1714858327270231000,10.84823095703125,0.2937464416027069,-0.33356067538261414,-0.09960214793682098
1714858327280180500,10.858180419921876,0.34381383657455444,-0.16311849653720856,-0.0015978955198079348
1714858327290129700,10.868129638671874,0.38003280758857727,0.05206476151943207,0.11451584100723267
1714858327300079000,10.8780791015625,0.3874896466732025,0.24274694919586182,0.20932430028915405
1714858327310028500,10.888028564453125,0.3704454302787781,0.3460775315761566,0.2625874876976013
1714858327319978000,10.89797802734375,0.3470096290111542,0.3886880576610565,0.27963170409202576
1714858327329927400,10.907927490234375,0.318247526884079,0.4600607454776764,0.28815382719039917
1714858327339876900,10.917876953125,0.270310640335083,0.5910881757736206,0.30732855200767517
1714858327349826300,10.927826416015625,0.1904158741235733,0.627307116985321,0.29348012804985046
1714858327359775700,10.937775634765625,0.09347688406705856,0.3130543529987335,0.17204007506370544
1714858327369725200,10.94772509765625,-0.02583264373242855,0.26085641980171204,0.12303794920444489
1714858327379674600,10.957674560546875,-0.08442214131355286,0.48136600852012634,0.19441060721874237
1714858327389624000,10.9676240234375,-0.0588558167219162,0.6496776342391968,0.3105243444442749
1714858327399573500,10.977573486328126,0.0050600022077560425,0.7061366438865662,0.42557281255722046
1714858327409523000,10.98752294921875,0.09454214572906494,0.7189198136329651,0.5544697046279907
1714858327419472400,10.997472412109374,0.17550218105316162,0.8094671964645386,0.6801708340644836
1714858327429421800,11.007421875,0.17017586529254913,0.9554083347320557,0.7717835307121277
1714858327439371300,11.017371337890625,0.01784316636621952,1.0054757595062256,0.8356993198394775
1714858327449320700,11.02732080078125,-0.24634221196174622,0.8925577998161316,0.8974846005439758
1714858327459270100,11.037270263671875,-0.5371592044830322,0.7508777379989624,0.94648677110672
1714858327469219600,11.047219482421875,-0.7874961495399475,0.6123934388160706,0.9827057123184204
1714858327479169000,11.0571689453125,-0.9110667109489441,0.4653870463371277,1.0476868152618408
1714858327489118200,11.0671181640625,-0.8727172613143921,0.3460775315761566,1.1254510879516602
1714858327499067600,11.077067626953125,-0.7768434882164001,0.2960101366043091,1.1883015632629395
1714858327509017000,11.08701708984375,-0.7246456146240234,0.2533995807170868,1.186171054840088
1714858327518966500,11.096966552734376,-0.672447681427002,0.16072164475917816,1.0444910526275635
1714858327528916000,11.106916015625,-0.5691171288490295,0.06378266215324402,0.774979293346405
1714858327538865400,11.116865478515624,-0.40080544352531433,0.12343742698431015,0.5544697046279907
1714858327548814800,11.12681494140625,-0.2569948434829712,0.29707539081573486,0.3957454562187195
1714858327558764300,11.136764404296875,-0.24634221196174622,0.4067975580692291,0.23382537066936493
1714858327568713700,11.146713623046875,-0.3922833502292633,0.4131891429424286,0.06338318437337875
1714858327578663200,11.1566630859375,-0.6181192398071289,0.35033857822418213,-0.09640636295080185
1714858327588612600,11.166612548828125,-0.8322372436523438,0.18841850757598877,-0.18056218326091766
1714858327598562000,11.17656201171875,-1.006940484046936,-0.008655266836285591,-0.12516847252845764
1714858327608511500,11.186511474609375,-1.1869699954986572,-0.11731215566396713,0.01225053146481514
1714858327618461000,11.1964609375,-1.3883048295974731,-0.1609879732131958,0.11558110266923904
1714858327628410400,11.206410400390626,-1.5662038326263428,-0.20999009907245636,0.1081242561340332
1714858327638359800,11.21635986328125,-1.632250189781189,-0.11305110156536102,-0.018642114475369453
1714858327648309200,11.226309326171876,-1.42665433883667,0.24594274163246155,-0.343547523021698
1714858327658258700,11.2362587890625,-0.860999345779419,0.7892271876335144,-0.8314382433891296
1714858327668208000,11.2462080078125,-0.11638005077838898,1.3879053592681885,-1.1712573766708374
1714858327678157300,11.2561572265625,0.5558013319969177,1.7756613492965698,-1.3065458536148071
1714858327688106800,11.266106689453125,1.028778314590454,1.8140108585357666,-1.361939549446106
1714858327698056200,11.27605615234375,1.2151994705200195,1.5998928546905518,-1.3885711431503296
1714858327708005600,11.286005615234375,1.095889925956726,1.2803137302398682,-1.3651353120803833
1714858327717955000,11.295955078125,0.7795066833496094,0.8605998754501343,-1.2394342422485352
1714858327727904500,11.305904541015625,0.439687579870224,0.3929491341114044,-0.9816404581069946
1714858327737854000,11.31585400390625,0.1339569091796875,0.1639174371957779,-0.6183855533599854
1714858327747803400,11.325803466796875,-0.16112112998962402,0.2533995807170868,-0.19228008389472961
1714858327757752800,11.3357529296875,-0.4338286221027374,0.3567301630973816,0.24234747886657715
1714858327767702300,11.345702392578126,-0.5872265696525574,0.3364901542663574,0.6024065613746643
1714858327777651700,11.355651611328126,-0.5829655528068542,0.1351553201675415,0.8293077349662781
1714858327787601200,11.36560107421875,-0.5233107805252075,-0.23449115455150604,0.8676572442054749
1714858327797550600,11.375550537109374,-0.4764391779899597,-0.6456829309463501,0.7419561147689819
1714858327807500000,11.3855,-0.4071970283985138,-1.0334389209747314,0.6098634600639343
1714858327817449500,11.395449462890625,-0.2761695981025696,-1.3008201122283936,0.532099187374115
1714858327827399000,11.40539892578125,-0.06205160543322563,-1.5479612350463867,0.4799012839794159
1714858327837348400,11.415348388671875,0.08815056830644608,-1.7514265775680542,0.45433494448661804
1714858327847297800,11.4252978515625,0.06151897460222244,-1.606550693511963,0.400006502866745
1714858327857247200,11.435247314453125,-0.036485280841588974,-1.1314431428909302,0.5438171029090881
1714858327867196700,11.44519677734375,-0.1760348230600357,-0.7479482293128967,0.787762463092804
1714858327877145900,11.455145751953125,-0.3400854170322418,-0.4901544451713562,0.8175898194313049
1714858327887095300,11.46509521484375,-0.44128546118736267,-0.4155859649181366,0.7771098017692566
1714858327897044700,11.475044677734376,-0.4434159994125366,-0.34740909934043884,0.699345588684082
1714858327906994200,11.484994140625,-0.34860754013061523,-0.2270343154668808,0.5597960352897644
1714858327916943600,11.494943603515624,-0.18775272369384766,-0.06191844865679741,0.4149201810359955
1714858327926893000,11.50489306640625,0.0007989477599039674,0.12237215787172318,0.3190464675426483
1714858327936842500,11.514842529296875,0.148870587348938,0.2960101366043091,0.22956430912017822
1714858327946792000,11.5247919921875,0.19787272810935974,0.3705785870552063,0.1038632020354271
1714858327956741400,11.534741455078125,0.19148114323616028,0.5388902425765991,-0.10279794037342072
1714858327966690800,11.54469091796875,0.17337165772914886,0.6134586930274963,-0.2998717129230499
1714858327976640300,11.55464013671875,0.1627190262079239,0.024367906153202057,-0.287088543176651
1714858327986589700,11.564589599609375,0.1243695318698883,-0.434760719537735,-0.19547587633132935
1714858327996539100,11.5745390625,0.056192658841609955,-0.8587356805801392,-0.10173267871141434
1714858328006488600,11.584488525390626,-0.006657897960394621,-1.2763190269470215,0.010120004415512085
1714858328016438000,11.59443798828125,-0.03755054250359535,-1.4510222673416138,0.13049480319023132
1714858328026387500,11.604387451171876,-0.05139897018671036,-1.3668663501739502,0.17630113661289215
1714858328036337000,11.6143369140625,-0.08761793375015259,-1.2635358572006226,0.1358211189508438
1714858328046286300,11.624286376953124,-0.16857796907424927,-1.203881025314331,0.0516652874648571
1714858328056235800,11.63423583984375,-0.23568958044052124,-1.207076907157898,-0.0708400309085846
1714858328066185200,11.644185302734375,-0.237820103764534,-1.1793800592422485,-0.2402169555425644
1714858328076134400,11.654134521484375,-0.18668745458126068,-1.0760494470596313,-0.4362254738807678
1714858328086083800,11.664083740234375,-0.11851058155298233,-0.9024114608764648,-0.5917539596557617
1714858328096033300,11.674033203125,-0.05459476262331009,-0.7074682116508484,-0.6567350625991821
1714858328105982700,11.683982666015625,-0.02263685315847397,-0.5721797347068787,-0.6301034688949585
1714858328115932200,11.69393212890625,-0.024767380207777023,-0.5423523783683777,-0.5001412630081177
1714858328125881600,11.703881591796875,-0.03861580789089203,-0.6542050242424011,-0.31372013688087463
1714858328135831000,11.7138310546875,-0.05139897018671036,-0.8054724931716919,-0.13475584983825684
1714858328145780500,11.723780517578126,-0.027963170781731606,-0.8949546217918396,0.011185267940163612
1714858328155730000,11.73372998046875,0.03382211923599243,-0.9908283352851868,0.11984215676784515
1714858328165679400,11.743679443359374,0.056192658841609955,-1.0462220907211304,0.21784640848636627
1714858328175628800,11.75362890625,0.0636495053768158,-1.0632662773132324,0.2817622423171997
1714858328185578200,11.763578125,0.07643266767263412,-1.0100030899047852,0.3190464675426483
1714858328195527700,11.773527587890625,0.07643266767263412,-0.8906935453414917,0.332894891500473
1714858328205477000,11.78347705078125,0.08175898343324661,-0.7490134835243225,0.3051980435848236
1714858328215426600,11.793426513671875,0.11158636957406998,-0.6233124136924744,0.21465063095092773
1714858328225376000,11.8033759765625,0.17017586529254913,-0.5061333775520325,0.09108003973960876
1714858328235325400,11.813325439453125,0.22130851447582245,-0.4091944098472595,-0.01970737800002098
1714858328245275000,11.82327490234375,0.22983063757419586,-0.37510594725608826,-0.08255793154239655
1714858328255224300,11.833224365234376,0.18828535079956055,-0.35593122243881226,-0.0708400309085846
1714858328265173800,11.843173828125,0.11691268533468246,-0.35593122243881226,-0.010120004415512085
1714858328275123000,11.853123046875,0.060453712940216064,-0.37936702370643616,0.053795814514160156
1714858328285072400,11.863072265625,0.040213704109191895,-0.3964112401008606,0.07190529257059097
1714858328295021800,11.873021728515624,0.04660528525710106,-0.40706387162208557,0.03249054029583931
1714858328304971300,11.88297119140625,0.0636495053768158,-0.41665124893188477,-0.026098959147930145
1714858328314920700,11.892920654296875,0.0679105594754219,-0.37936702370643616,-0.06018739566206932
1714858328324870100,11.9028701171875,0.06258423626422882,-0.30479857325553894,-0.06444845348596573
1714858328334819600,11.912819580078125,0.06578002870082855,-0.246209055185318,-0.0655137151479721
1714858328344769000,11.92276904296875,0.08069372177124023,-0.2035985141992569,-0.08575372397899628
1714858328354718500,11.932718505859375,0.0913463607430458,-0.15566164255142212,-0.12942953407764435
1714858328364668000,11.94266796875,0.08175898343324661,-0.10772478580474854,-0.19441060721874237
1714858328374617300,11.952617431640626,0.056192658841609955,-0.08215846121311188,-0.25619590282440186
1714858328384566800,11.96256689453125,0.02636527456343174,-0.1002679392695427,-0.28495803475379944
1714858328394516200,11.97251611328125,-0.006657897960394621,-0.1663142889738083,-0.2860232889652252
1714858328404465700,11.982465576171874,-0.05779055133461952,-0.20146799087524414,-0.2625874876976013
1714858328414415000,11.9924150390625,-0.1387505829334259,-0.11518163233995438,-0.21252009272575378
1714858328424364500,12.002364501953124,-0.2090579867362976,-0.012916321866214275,-0.18056218326091766
1714858328434314000,12.01231396484375,-0.21012325584888458,0.037151068449020386,-0.17949692904949188
1714858328444263400,12.022263427734375,-0.13555480539798737,0.03821633383631706,-0.21891167759895325
1714858328454212900,12.032212890625,-0.001331579522229731,0.04354264959692955,-0.28815382719039917
1714858328464162300,12.042162353515625,0.16804534196853638,0.08295740932226181,-0.34141698479652405
1714858328474111500,12.052111572265625,0.32676962018013,0.102132149040699,-0.34567806124687195
1714858328484061000,12.06206103515625,0.4311654567718506,0.04780370742082596,-0.28389275074005127
1714858328494010400,12.07201025390625,0.469514936208725,-0.04167843982577324,-0.1880190372467041
1714858328503959800,12.081959716796876,0.4492749273777008,-0.09600688517093658,-0.08575372397899628
1714858328513909200,12.0919091796875,0.3842938542366028,-0.08428898453712463,0.02396843209862709
1714858328523858700,12.101858642578126,0.3225085735321045,-0.022503694519400597,0.1358211189508438
1714858328533808000,12.11180810546875,0.31931278109550476,0.048868969082832336,0.1837579756975174
1714858328543757600,12.121757568359374,0.3970770239830017,0.10745847225189209,0.14753901958465576
1714858328553707000,12.13170703125,0.5078644156455994,0.14580796658992767,0.06764423847198486
1714858328563656400,12.141656494140625,0.6229129433631897,0.18096165359020233,-0.0037284228019416332
1714858328573606000,12.15160595703125,0.7337003350257874,0.252334326505661,-0.03568633273243904
1714858328583555300,12.161555419921875,0.8210519552230835,0.37697017192840576,-0.038882121443748474
1714858328593504800,12.1715048828125,0.8881635665893555,0.497344970703125,-0.04314317926764488
1714858328603454200,12.1814541015625,0.9371656775474548,0.572978675365448,-0.053795814514160156
1714858328613403600,12.191403564453125,0.9584709405899048,0.5527386665344238,-0.0708400309085846
1714858328623353000,12.20135302734375,0.9584709405899048,0.41105860471725464,-0.07723161578178406
1714858328633302500,12.211302490234376,0.9531446695327759,0.21398483216762543,-0.06870950758457184
1714858328643252000,12.221251953125,0.9307740926742554,0.04460791498422623,-0.038882121443748474
1714858328653201400,12.231201416015624,0.9009467363357544,-0.008655266836285591,0.0282294861972332
1714858328663150600,12.241150634765624,0.8945551514625549,0.022237379103899002,0.09214530140161514
1714858328673100000,12.25110009765625,0.9073383212089539,0.0978710949420929,0.1272990107536316
1714858328683049500,12.261049560546875,0.9062730669975281,0.19267955422401428,0.13262532651424408
1714858328692999000,12.2709990234375,0.8775109052658081,0.2619217038154602,0.11451584100723267
1714858328702948400,12.2809482421875,0.8178561329841614,0.2715090811252594,0.10599373281002045
1714858328712897800,12.290897705078125,0.7198519110679626,0.196940615773201,0.13262532651424408
1714858328722847200,12.30084716796875,0.6005423665046692,0.09893636405467987,0.1933453530073166
1714858328732796700,12.310796630859375,0.469514936208725,-0.0022636852227151394,0.2540653645992279
1714858328742746000,12.32074609375,0.337422251701355,-0.09387636184692383,0.2636527419090271
1714858328752695600,12.330695556640626,0.21491694450378418,-0.11518163233995438,0.22317273914813995
1714858328762645000,12.34064501953125,0.13182637095451355,-0.06617950648069382,0.1603221744298935
1714858328772594400,12.350594482421876,0.09241162240505219,0.020106852054595947,0.09214530140161514
1714858328782544000,12.3605439453125,0.08282424509525299,0.11917637288570404,0.02396843209862709
1714858328792493300,12.370493408203124,0.0913463607430458,0.2054627239704132,-0.034621067345142365
1714858328802442800,12.38044287109375,0.10412952303886414,0.2715090811252594,-0.08149266988039017
