time,seconds_elapsed,z,y,x
1714858316624300500,0.202300537109375,0.04900212585926056,0.054328445345163345,-0.15339796245098114
1714858316634254300,0.21225439453125,0.014913691207766533,0.050067391246557236,-0.0330231711268425
1714858316644208400,0.22220849609375,-0.03728422895073891,0.0074568456038832664,0.0703074038028717
1714858316654163000,0.232162841796875,-0.07456845790147781,-0.019174745306372643,0.1267663687467575
1714858316664117500,0.242117431640625,-0.09267793595790863,-0.02769685536623001,0.11824426054954529
1714858316674069000,0.252069091796875,-0.08096003532409668,-0.054328445345163345,0.04048001766204834
1714858316684018400,0.262018310546875,-0.04048001766204834,-0.09693899005651474,-0.07456845790147781
1714858316693968000,0.2719677734375,-0.0010652636410668492,-0.14807164669036865,-0.18642114102840424
1714858316703917300,0.281917236328125,0.021305272355675697,-0.2024000883102417,-0.2492716908454895
1714858316713866800,0.29186669921875,0.03621896356344223,-0.1651158630847931,-0.22903168201446533
1714858316723816000,0.30181591796875,0.05113265663385391,-0.07882951200008392,-0.14381058514118195
1714858316733765400,0.311765380859375,0.046871598809957504,-0.05752423778176308,-0.0564589723944664
1714858316743714800,0.32171484375,0.023435799404978752,-0.08735162019729614,0
1714858316753664300,0.331664306640625,0,-0.09800425171852112,0.02450106292963028
1714858316763613400,0.341613525390625,-0.012783164158463478,-0.061785291880369186,0.004261054564267397
1714858316773563000,0.35156298828125,0.0010652636410668492,-0.03195790946483612,-0.0564589723944664
1714858316783512300,0.36151220703125,0.02876211889088154,-0.0330231711268425,-0.1310274302959442
1714858316793461800,0.371461669921875,0.058589499443769455,-0.046871598809957504,-0.19387798011302948
1714858316803411000,0.381410888671875,0.0798947736620903,-0.10120004415512085,-0.22690115869045258
1714858316813360400,0.3913603515625,0.08096003532409668,-0.17257271707057953,-0.22264009714126587
1714858316823309800,0.401309814453125,0.05965476483106613,-0.17683376371860504,-0.19174745678901672
1714858316833259300,0.41125927734375,0.02769685536623001,-0.09800425171852112,-0.15659375488758087
1714858316843208400,0.42120849609375,0.01597895473241806,0.045806337147951126,-0.1406148076057434
1714858316853158000,0.431157958984375,0.017044218257069588,0.17683376371860504,-0.1406148076057434
1714858316863107300,0.441107421875,-0.005326318088918924,0.18535587191581726,-0.122505322098732
1714858316873056800,0.451056884765625,-0.05113265663385391,0.08522108942270279,-0.058589499443769455
1714858316883006000,0.461005859375,-0.09054741263389587,-0.030892645940184593,0.03728422895073891
1714858316892955400,0.470955322265625,-0.10972215235233307,-0.122505322098732,0.14913691580295563
1714858316902904800,0.48090478515625,-0.12037479132413864,-0.18535587191581726,0.24288010597229004
1714858316912854300,0.490854248046875,-0.12144005298614502,-0.2258358895778656,0.2833601236343384
1714858316922803500,0.500803466796875,-0.11611373722553253,-0.22477063536643982,0.2673811614513397
1714858316932753000,0.5107529296875,-0.1129179447889328,-0.15126743912696838,0.2258358895778656
1714858316942702300,0.520702392578125,-0.0990695208311081,-0.03621896356344223,0.1736379712820053
1714858316952651800,0.53065185546875,-0.09480846673250198,0.058589499443769455,0.11717899888753891
1714858316962601000,0.54060107421875,-0.10652636736631393,0.1363537460565567,0.054328445345163345
1714858316972550400,0.55055029296875,-0.10439583659172058,0.23648852109909058,0.0021305272821336985
1714858316982499800,0.560499755859375,-0.06498108059167862,0.3472759425640106,-0.029827382415533066
1714858316992449300,0.57044921875,0.0074568456038832664,0.3941475450992584,-0.05965476483106613
1714858317002398700,0.580398681640625,0.122505322098732,0.3621896505355835,-0.11078742146492004
1714858317012348400,0.590348388671875,0.22264009714126587,0.2865559160709381,-0.16298533976078033
1714858317022297900,0.6002978515625,0.2737727463245392,0.16085481643676758,-0.19600850343704224
1714858317032247300,0.610247314453125,0.27590328454971313,0.021305272355675697,-0.1981390416622162
1714858317042196700,0.62019677734375,0.26098960638046265,-0.050067391246557236,-0.18748639523983002
1714858317052146200,0.630146240234375,0.2545980215072632,-0.03195790946483612,-0.1832253485918045
1714858317062095600,0.640095703125,0.2812296152114868,0.050067391246557236,-0.20559588074684143
1714858317072045300,0.65004541015625,0.32597067952156067,0.1555284857749939,-0.24074958264827728
1714858317081994800,0.659994873046875,0.35579806566238403,0.2119874656200409,-0.25246748328208923
1714858317091944200,0.669944091796875,0.3440801501274109,0.22370536625385284,-0.23329274356365204
1714858317101893600,0.6798935546875,0.2737727463245392,0.2396843135356903,-0.18642114102840424
1714858317111843000,0.689843017578125,0.1789642870426178,0.2492716908454895,-0.11824426054954529
1714858317121792500,0.69979248046875,0.10013478249311447,0.18002955615520477,-0.02876211889088154
1714858317131742000,0.709741943359375,0.054328445345163345,0.018109481781721115,0.08096003532409668
1714858317141691600,0.719691650390625,0.03195790946483612,-0.17150744795799255,0.23222747445106506
1714858317151641000,0.72964111328125,0.0021305272821336985,-0.2162485122680664,0.4197138845920563
1714858317161590500,0.739590576171875,-0.04900212585926056,-0.09693899005651474,0.602939248085022
1714858317171540000,0.7495400390625,-0.10439583659172058,-0.0010652636410668492,0.754206657409668
1714858317181489400,0.759489501953125,-0.13528847694396973,0.012783164158463478,0.8916256427764893
1714858317191438800,0.76943896484375,-0.13741901516914368,0.04048001766204834,1.0460889339447021
1714858317201388500,0.779388427734375,-0.13315795361995697,0.2077264040708542,1.2048131227493286
1714858317211338000,0.789337890625,-0.10439583659172058,0.30253487825393677,1.2516847848892212
1714858317221287400,0.799287353515625,-0.06391581892967224,0.5251749753952026,1.2005521059036255
1714858317231236900,0.80923681640625,-0.02769685536623001,0.8575372099876404,1.1121352910995483
1714858317241186300,0.819186279296875,0.004261054564267397,1.0056089162826538,1.0109351873397827
1714858317251135700,0.8291357421875,0.013848427683115005,0.8511456251144409,0.9086698889732361
1714858317261085200,0.839085205078125,-0.01597895473241806,0.48682549595832825,0.8362319469451904
1714858317271035000,0.849034912109375,-0.09480846673250198,0.1651158630847931,0.8277098536491394
1714858317280984300,0.858984375,-0.20133483409881592,-0.022370535880327225,0.8532761931419373
1714858317290933800,0.868933837890625,-0.31212225556373596,-0.054328445345163345,0.8447540402412415
1714858317300883200,0.87888330078125,-0.38242965936660767,0.034088436514139175,0.7669898271560669
1714858317310832600,0.88883251953125,-0.377103328704834,0.03941475600004196,0.5752423405647278
1714858317320782000,0.898781982421875,-0.2908169627189636,-0.15659375488758087,0.26418536901474
1714858317330731500,0.9087314453125,-0.1310274302959442,-0.42610546946525574,-0.05752423778176308
1714858317340681000,0.918680908203125,0.07776424288749695,-0.590156078338623,-0.2812296152114868
1714858317350630400,0.92863037109375,0.30253487825393677,-0.7009434700012207,-0.3898864984512329
1714858317360579800,0.938579833984375,0.4655202031135559,-0.6317013502120972,-0.43143177032470703
1714858317370529300,0.948529296875,0.5251749753952026,-0.32597067952156067,-0.45912861824035645
1714858317380478500,0.958478515625,0.4942823350429535,0.1033305749297142,-0.5230444669723511
1714858317390428000,0.968427978515625,0.42184439301490784,0.4559328258037567,-0.6402234435081482
1714858317400377300,0.97837744140625,0.38882121443748474,0.5805686712265015,-0.7584677338600159
1714858317410326800,0.988326904296875,0.43036651611328125,0.5187833905220032,-0.8117309212684631
1714858317420276200,0.998276123046875,0.50706547498703,0.4506065249443054,-0.80001300573349
1714858317430225700,1.0082255859375,0.5518065690994263,0.4282359778881073,-0.7510108947753906
1714858317440175000,1.018175048828125,0.5464802384376526,0.4836297035217285,-0.6966823935508728
1714858317450124500,1.02812451171875,0.4889560043811798,0.6306360960006714,-0.6711161136627197
1714858317460074000,1.038073974609375,0.36858120560646057,0.8426235318183899,-0.6860297918319702
1714858317470023400,1.0480234375,0.2215748429298401,0.9874994158744812,-0.7020087242126465
1714858317479972900,1.057972900390625,0.09054741263389587,0.942758321762085,-0.6966823935508728
1714858317489922300,1.06792236328125,-0.03515370190143585,0.6924213767051697,-0.6881603002548218
1714858317499871700,1.077871826171875,-0.1502021700143814,0.3941475450992584,-0.6753771305084229
1714858317509821200,1.0878212890625,-0.2215748429298401,0.122505322098732,-0.6540718674659729
1714858317519770600,1.0977705078125,-0.23648852109909058,-0.13315795361995697,-0.6103960871696472
1714858317529720000,1.107719970703125,-0.20559588074684143,-0.3430148959159851,-0.5667202472686768
1714858317539669500,1.11766943359375,-0.15126743912696838,-0.4804339110851288,-0.5560676455497742
1714858317549619000,1.127618896484375,-0.06498108059167862,-0.5081307291984558,-0.5986781716346741
1714858317559568400,1.137568359375,0.046871598809957504,-0.5209138989448547,-0.6604634523391724
1714858317569517800,1.147517822265625,0.14913691580295563,-0.5368928909301758,-0.6359623670578003
1714858317579467000,1.157467041015625,0.21731378138065338,-0.4324970245361328,-0.48789075016975403
1714858317589416400,1.16741650390625,0.2684464454650879,-0.3526022732257843,-0.22903168201446533
1714858317599366000,1.177365966796875,0.30892646312713623,-0.4143875539302826,0.07563371956348419
1714858317609315300,1.1873154296875,0.31318750977516174,-0.5571328997612,0.32703593373298645
1714858317619264800,1.1972646484375,0.2215748429298401,-0.5379581451416016,0.42077913880348206
1714858317629214200,1.207214111328125,0.10759162902832031,-0.3994738757610321,0.37923386693000793
1714858317639163600,1.21716357421875,0.058589499443769455,-0.19494324922561646,0.28442537784576416
1714858317649113000,1.227113037109375,0.07456845790147781,0.02876211889088154,0.16405059397220612
1714858317659062500,1.2370625,0.10972215235233307,0.21837905049324036,0.0330231711268425
1714858317669012000,1.247011962890625,0.13528847694396973,0.3238401412963867,-0.03941475600004196
1714858317678961400,1.25696142578125,0.1502021700143814,0.3632549047470093,-0.013848427683115005
1714858317688910800,1.266910888671875,0.11078742146492004,0.26525065302848816,0.06072002649307251
1714858317698860300,1.2768603515625,-0.008522109128534794,0.066046342253685,0.14913691580295563
1714858317708809700,1.286809814453125,-0.1267663687467575,-0.17257271707057953,0.20985694229602814
1714858317718759200,1.29675927734375,-0.1928127259016037,-0.4559328258037567,0.2215748429298401
1714858317728708600,1.30670849609375,-0.21731378138065338,-0.6892255544662476,0.21944430470466614
1714858317738658000,1.316657958984375,-0.2077264040708542,-0.7456845641136169,0.23861905932426453
1714858317748607500,1.326607421875,-0.20026956498622894,-0.7020087242126465,0.2865559160709381
1714858317758557000,1.336556884765625,-0.18748639523983002,-0.665789783000946,0.35579806566238403
1714858317768506400,1.34650634765625,-0.16405059397220612,-0.6828339695930481,0.4133222997188568
1714858317778455600,1.35645556640625,-0.16724638640880585,-0.6977477073669434,0.4378233551979065
1714858317788405000,1.366405029296875,-0.1736379712820053,-0.5997434258460999,0.42184439301490784
1714858317798354400,1.3763544921875,-0.17683376371860504,-0.41651809215545654,0.33662331104278564
1714858317808303900,1.386303955078125,-0.1981390416622162,-0.23648852109909058,0.21731378138065338
1714858317818253300,1.39625341796875,-0.2300969511270523,-0.13741901516914368,0.11611373722553253
1714858317828202800,1.40620263671875,-0.20559588074684143,-0.13422322273254395,0.03941475600004196
1714858317838152200,1.416152099609375,-0.13741901516914368,-0.16831165552139282,0
1714858317848101600,1.4261015625,-0.06817687302827835,-0.2300969511270523,-0.0031957910396158695
1714858317858051000,1.436051025390625,-0.01597895473241806,-0.2737727463245392,0.023435799404978752
1714858317868000500,1.44600048828125,0.009587372653186321,-0.2769685387611389,0.06391581892967224
1714858317877950000,1.455949951171875,0.011717899702489376,-0.2684464454650879,0.10226531326770782
1714858317887899400,1.4658994140625,0,-0.24288010597229004,0.15765902400016785
1714858317897848800,1.475848876953125,-0.02876211889088154,-0.21731378138065338,0.2066611498594284
1714858317907798300,1.48579833984375,-0.06285055726766586,-0.20026956498622894,0.21731378138065338
1714858317917747700,1.495747802734375,-0.08841688185930252,-0.18748639523983002,0.17789903283119202
1714858317927697200,1.505697265625,-0.09480846673250198,-0.1693769246339798,0.1129179447889328
1714858317937646600,1.515646484375,-0.08841688185930252,-0.14487585425376892,0.05965476483106613
1714858317947596000,1.525595947265625,-0.08735162019729614,-0.12783163785934448,0.030892645940184593
1714858317957545500,1.53554541015625,-0.0894821435213089,-0.11930952966213226,0.02876211889088154
1714858317967494700,1.54549462890625,-0.08522108942270279,-0.10546109825372696,0.03621896356344223
1714858317977444400,1.5554443359375,-0.07882951200008392,-0.08522108942270279,0.03728422895073891
1714858317987393800,1.565393798828125,-0.07350318878889084,-0.06498108059167862,0.03515370190143585
1714858317997343200,1.57534326171875,-0.07882951200008392,-0.029827382415533066,0.01597895473241806
1714858318007292700,1.585292724609375,-0.08522108942270279,0.017044218257069588,-0.011717899702489376
1714858318017242000,1.5952421875,-0.08202529698610306,0.041545283049345016,-0.021305272355675697
1714858318027191600,1.605191650390625,-0.07456845790147781,0.026631591841578484,-0.011717899702489376
1714858318037141200,1.615141357421875,-0.06498108059167862,-0.025566328316926956,0.010652636177837849
1714858318047090700,1.625090576171875,-0.054328445345163345,-0.08096003532409668,0.026631591841578484
1714858318057040100,1.6350400390625,-0.050067391246557236,-0.10439583659172058,0.029827382415533066
1714858318066989600,1.644989501953125,-0.05539371073246002,-0.10439583659172058,0.026631591841578484
1714858318076939000,1.65493896484375,-0.06924213469028473,-0.07776424288749695,0.02450106292963028
1714858318086888400,1.664888427734375,-0.08309056609869003,-0.029827382415533066,0.022370535880327225
1714858318096838000,1.674837890625,-0.0798947736620903,0.018109481781721115,0.008522109128534794
1714858318106787600,1.68478759765625,-0.04474107176065445,0.046871598809957504,-0.018109481781721115
1714858318116737000,1.694737060546875,0.0021305272821336985,0.04793686419725418,-0.03621896356344223
1714858318126686500,1.7046865234375,0.038349490612745285,0.02024000883102417,-0.03941475600004196
1714858318136636000,1.714635986328125,0.04793686419725418,-0.004261054564267397,-0.019174745306372643
1714858318146585300,1.72458544921875,0.03621896356344223,-0.02450106292963028,0.01597895473241806
1714858318156534800,1.73453466796875,0.012783164158463478,-0.04367581009864807,0.05219791829586029
1714858318166484500,1.744484375,-0.010652636177837849,-0.06498108059167862,0.06498108059167862
1714858318176434000,1.754433837890625,-0.030892645940184593,-0.09054741263389587,0.05326318368315697
1714858318186383400,1.76438330078125,-0.038349490612745285,-0.09374319761991501,0.0330231711268425
1714858318196332800,1.774332763671875,-0.045806337147951126,-0.06817687302827835,0.014913691207766533
1714858318206282200,1.7842822265625,-0.03941475600004196,-0.018109481781721115,0.012783164158463478
1714858318216231700,1.794231689453125,-0.017044218257069588,0.03195790946483612,0.013848427683115005
1714858318226181000,1.80418115234375,0,0.0330231711268425,0.012783164158463478
1714858318236130800,1.814130859375,0.014913691207766533,0.0074568456038832664,0.019174745306372643
1714858318246080300,1.824080322265625,0.019174745306372643,-0.017044218257069588,0.029827382415533066
1714858318256029700,1.83402978515625,0.012783164158463478,-0.03728422895073891,0.041545283049345016
1714858318265979100,1.843979248046875,0.0021305272821336985,-0.05965476483106613,0.041545283049345016
1714858318275928600,1.853928466796875,-0.005326318088918924,-0.07137266546487808,0.025566328316926956
1714858318285878000,1.8638779296875,0,-0.061785291880369186,0.005326318088918924
1714858318295827700,1.87382763671875,0.014913691207766533,-0.04048001766204834,-0.0074568456038832664
1714858318305777200,1.883777099609375,0.026631591841578484,-0.026631591841578484,-0.011717899702489376
1714858318315726600,1.8937265625,0.03621896356344223,-0.0031957910396158695,-0.018109481781721115
1714858318325676000,1.903676025390625,0.03941475600004196,0.022370535880327225,-0.0330231711268425
1714858318335625500,1.91362548828125,0.04048001766204834,0.050067391246557236,-0.05219791829586029
1714858318345575000,1.923574951171875,0.042610544711351395,0.07350318878889084,-0.06498108059167862
1714858318355524400,1.9335244140625,0.050067391246557236,0.07243792712688446,-0.06072002649307251
1714858318365474000,1.94347412109375,0.050067391246557236,0.02769685536623001,-0.03941475600004196
1714858318375423500,1.953423583984375,0.03941475600004196,-0.054328445345163345,-0.012783164158463478
1714858318385373000,1.963373046875,0.023435799404978752,-0.12889690697193146,0.01597895473241806
1714858318395322400,1.973322265625,0,-0.18216007947921753,0.041545283049345016
1714858318405271800,1.983271728515625,-0.017044218257069588,-0.22690115869045258,0.0703074038028717
1714858318415221200,1.99322119140625,-0.019174745306372643,-0.2503369450569153,0.09374319761991501
1714858318425171000,2.0031708984375,-0.011717899702489376,-0.25246748328208923,0.09800425171852112
1714858318435120400,2.013120361328125,-0.006391582079231739,-0.21837905049324036,0.08202529698610306
1714858318445069800,2.02306982421875,-0.005326318088918924,-0.16192007064819336,0.05113265663385391
1714858318455019300,2.033019287109375,-0.006391582079231739,-0.07243792712688446,0.009587372653186321
1714858318464968700,2.04296875,-0.0074568456038832664,0.029827382415533066,-0.041545283049345016
1714858318474918100,2.052918212890625,-0.0021305272821336985,0.12144005298614502,-0.09267793595790863
1714858318484867600,2.06286767578125,0.011717899702489376,0.16618113219738007,-0.12570111453533173
1714858318494817300,2.0728173828125,0.019174745306372643,0.14913691580295563,-0.11930952966213226
1714858318504766700,2.0827666015625,0.021305272355675697,0.08522108942270279,-0.07563371956348419
1714858318514716200,2.092716064453125,0.014913691207766533,0.0021305272821336985,-0.017044218257069588
1714858318524665600,2.10266552734375,-0.0021305272821336985,-0.06924213469028473,0.029827382415533066
1714858318534615000,2.112614990234375,-0.021305272355675697,-0.09587372839450836,0.041545283049345016
1714858318544564500,2.122564453125,-0.02769685536623001,-0.08096003532409668,0.017044218257069588
1714858318554514000,2.132513916015625,-0.023435799404978752,-0.04900212585926056,-0.02876211889088154
1714858318564463000,2.142463134765625,-0.013848427683115005,-0.02024000883102417,-0.07456845790147781
1714858318574412500,2.15241259765625,0,0.014913691207766533,-0.09587372839450836
1714858318584362000,2.162362060546875,0.023435799404978752,0.05326318368315697,-0.08096003532409668
1714858318594311400,2.1723115234375,0.04048001766204834,0.061785291880369186,-0.042610544711351395
1714858318604260900,2.1822607421875,0.050067391246557236,0.03941475600004196,-0.0074568456038832664
1714858318614210300,2.192210205078125,0.05113265663385391,-0.006391582079231739,0.0074568456038832664
1714858318624159700,2.20215966796875,0.038349490612745285,-0.05752423778176308,0.008522109128534794
1714858318634109200,2.212109130859375,0.011717899702489376,-0.08309056609869003,0.0031957910396158695
1714858318644058600,2.22205859375,-0.01597895473241806,-0.07882951200008392,-0.012783164158463478
1714858318654008000,2.232008056640625,-0.03728422895073891,-0.05965476483106613,-0.0330231711268425
1714858318663957500,2.24195751953125,-0.045806337147951126,-0.034088436514139175,-0.045806337147951126
1714858318673907000,2.251906982421875,-0.038349490612745285,-0.013848427683115005,-0.054328445345163345
1714858318683856400,2.2618564453125,-0.019174745306372643,0.0031957910396158695,-0.05326318368315697
1714858318693805800,2.271805908203125,0,0.02450106292963028,-0.046871598809957504
1714858318703755300,2.28175537109375,0.013848427683115005,0.03621896356344223,-0.03621896356344223
1714858318713704700,2.29170458984375,0.02450106292963028,0.034088436514139175,-0.01597895473241806
1714858318723654100,2.301654052734375,0.02876211889088154,0.018109481781721115,0
1714858318733603600,2.311603515625,0.029827382415533066,-0.010652636177837849,0.006391582079231739
1714858318743553000,2.321552978515625,0.023435799404978752,-0.042610544711351395,0.0074568456038832664
1714858318753502200,2.331502197265625,0.011717899702489376,-0.05326318368315697,0.006391582079231739
1714858318763451600,2.34145166015625,0.0031957910396158695,-0.054328445345163345,-0.005326318088918924
1714858318773401000,2.351401123046875,0.0010652636410668492,-0.04900212585926056,-0.029827382415533066
1714858318783350500,2.3613505859375,0.0010652636410668492,-0.02769685536623001,-0.05326318368315697
1714858318793300000,2.371300048828125,0.0021305272821336985,-0.0031957910396158695,-0.07563371956348419
1714858318803249400,2.38124951171875,0.012783164158463478,0.014913691207766533,-0.08841688185930252
1714858318813198800,2.39119873046875,0.02876211889088154,0.011717899702489376,-0.09054741263389587
1714858318823148300,2.401148193359375,0.04048001766204834,-0.014913691207766533,-0.08628635853528976
1714858318833097700,2.41109765625,0.04048001766204834,-0.03941475600004196,-0.07137266546487808
1714858318843047200,2.421047119140625,0.026631591841578484,-0.06391581892967224,-0.045806337147951126
1714858318852996600,2.43099658203125,0.006391582079231739,-0.08522108942270279,-0.02450106292963028
1714858318862946000,2.440946044921875,-0.017044218257069588,-0.09161267429590225,-0.009587372653186321
1714858318872895500,2.4508955078125,-0.04048001766204834,-0.06285055726766586,-0.0021305272821336985
1714858318882845000,2.460844970703125,-0.061785291880369186,-0.019174745306372643,-0.0074568456038832664
1714858318892794400,2.47079443359375,-0.06817687302827835,0.009587372653186321,-0.023435799404978752
1714858318902743800,2.480743896484375,-0.05965476483106613,0.017044218257069588,-0.04367581009864807
1714858318912693200,2.490693359375,-0.042610544711351395,0.014913691207766533,-0.06285055726766586
1714858318922642700,2.500642578125,-0.02876211889088154,0.0074568456038832664,-0.06924213469028473
1714858318932592400,2.51059228515625,-0.023435799404978752,0.005326318088918924,-0.058589499443769455
1714858318942541800,2.520541748046875,-0.02450106292963028,0.010652636177837849,-0.038349490612745285
1714858318952491300,2.5304912109375,-0.023435799404978752,0.010652636177837849,-0.021305272355675697
1714858318962440700,2.540440673828125,-0.018109481781721115,0.0010652636410668492,-0.006391582079231739
1714858318972390100,2.55039013671875,-0.011717899702489376,-0.010652636177837849,0.005326318088918924
1714858318982339600,2.560339599609375,-0.009587372653186321,-0.022370535880327225,0.021305272355675697
1714858318992289300,2.570289306640625,-0.006391582079231739,-0.030892645940184593,0.030892645940184593
1714858319002238700,2.58023876953125,-0.0031957910396158695,-0.038349490612745285,0.03515370190143585
1714858319012188200,2.590188232421875,0.004261054564267397,-0.04900212585926056,0.03195790946483612
1714858319022137600,2.6001376953125,0.011717899702489376,-0.06285055726766586,0.025566328316926956
1714858319032087000,2.610087158203125,0.019174745306372643,-0.066046342253685,0.023435799404978752
1714858319042036500,2.620036376953125,0.023435799404978752,-0.054328445345163345,0.026631591841578484
1714858319051986000,2.62998583984375,0.022370535880327225,-0.04367581009864807,0.02876211889088154
1714858319061935600,2.639935546875,0.01597895473241806,-0.038349490612745285,0.023435799404978752
1714858319071885000,2.649885009765625,0.009587372653186321,-0.03515370190143585,0.010652636177837849
1714858319081834500,2.65983447265625,0.010652636177837849,-0.03728422895073891,-0.0010652636410668492
1714858319091784000,2.669783935546875,0.018109481781721115,-0.04793686419725418,0
1714858319101733400,2.6797333984375,0.023435799404978752,-0.06285055726766586,0.010652636177837849
1714858319111682800,2.689682861328125,0.025566328316926956,-0.07456845790147781,0.018109481781721115
1714858319121632500,2.699632568359375,0.021305272355675697,-0.08628635853528976,0.018109481781721115
1714858319131582000,2.70958203125,0.0074568456038832664,-0.10013478249311447,0.01597895473241806
1714858319141531400,2.719531494140625,-0.006391582079231739,-0.0990695208311081,0.022370535880327225
1714858319151480800,2.729480712890625,-0.013848427683115005,-0.08628635853528976,0.03728422895073891
1714858319161430300,2.73943017578125,-0.012783164158463478,-0.08096003532409668,0.045806337147951126
1714858319171379700,2.749379638671875,-0.004261054564267397,-0.09480846673250198,0.04474107176065445
1714858319181329200,2.7593291015625,-0.0021305272821336985,-0.13528847694396973,0.050067391246557236
1714858319191278800,2.76927880859375,-0.005326318088918924,-0.17683376371860504,0.06817687302827835
1714858319201228300,2.779228271484375,-0.005326318088918924,-0.18002955615520477,0.08522108942270279
1714858319211177700,2.789177734375,-0.0021305272821336985,-0.1651158630847931,0.09587372839450836
1714858319221127200,2.799127197265625,-0.004261054564267397,-0.12996216118335724,0.09587372839450836
1714858319231076600,2.80907666015625,0.004261054564267397,-0.08096003532409668,0.07456845790147781
1714858319241026000,2.819026123046875,0.014913691207766533,-0.042610544711351395,0.029827382415533066
1714858319250975500,2.8289755859375,0.017044218257069588,-0.01597895473241806,-0.019174745306372643
1714858319260925200,2.83892529296875,0.011717899702489376,0.010652636177837849,-0.054328445345163345
1714858319270874600,2.84887451171875,0.0031957910396158695,0.029827382415533066,-0.07350318878889084
1714858319280824000,2.858823974609375,-0.0031957910396158695,0.03515370190143585,-0.07456845790147781
1714858319290773500,2.8687734375,-0.006391582079231739,0.02876211889088154,-0.061785291880369186
1714858319300723000,2.878722900390625,-0.0021305272821336985,0.011717899702489376,-0.041545283049345016
1714858319310672400,2.88867236328125,0.006391582079231739,-0.0031957910396158695,-0.01597895473241806
1714858319320622000,2.8986220703125,0.008522109128534794,-0.012783164158463478,0.005326318088918924
1714858319330571500,2.908571533203125,0.004261054564267397,-0.02024000883102417,0.018109481781721115
1714858319340521000,2.91852099609375,-0.0031957910396158695,-0.022370535880327225,0.01597895473241806
1714858319350470400,2.928470458984375,-0.010652636177837849,-0.018109481781721115,0.008522109128534794
1714858319360419800,2.938419921875,-0.006391582079231739,-0.005326318088918924,0.004261054564267397
1714858319370369300,2.948369384765625,0.005326318088918924,0.008522109128534794,0.004261054564267397
1714858319380318700,2.958318603515625,0.018109481781721115,0.029827382415533066,0.006391582079231739
1714858319390268400,2.968268310546875,0.023435799404978752,0.042610544711351395,0.014913691207766533
1714858319400217900,2.9782177734375,0.023435799404978752,0.03195790946483612,0.02450106292963028
1714858319410167300,2.988167236328125,0.021305272355675697,0.006391582079231739,0.030892645940184593
1714858319420116700,2.99811669921875,0.021305272355675697,-0.017044218257069588,0.029827382415533066
1714858319430066200,3.008066162109375,0.019174745306372643,-0.030892645940184593,0.025566328316926956
1714858319440015600,3.018015625,0.011717899702489376,-0.03515370190143585,0.023435799404978752
1714858319449965300,3.02796533203125,-0.0010652636410668492,-0.02769685536623001,0.018109481781721115
1714858319459914800,3.037914794921875,-0.011717899702489376,-0.021305272355675697,0.008522109128534794
1714858319469864200,3.0478642578125,-0.01597895473241806,-0.012783164158463478,-0.0031957910396158695
1714858319479813600,3.057813720703125,-0.010652636177837849,-0.0031957910396158695,-0.013848427683115005
1714858319489763000,3.06776318359375,0,0.009587372653186321,-0.017044218257069588
1714858319499712500,3.07771240234375,0.0074568456038832664,0.010652636177837849,-0.005326318088918924
1714858319509662000,3.087661865234375,0.010652636177837849,0,0.006391582079231739
1714858319519611600,3.097611572265625,0.010652636177837849,-0.02024000883102417,0.011717899702489376
1714858319529561000,3.10756103515625,0.0074568456038832664,-0.03195790946483612,0.010652636177837849
1714858319539510500,3.117510498046875,0.008522109128534794,-0.0330231711268425,0.0074568456038832664
1714858319549460000,3.1274599609375,0.005326318088918924,-0.02024000883102417,-0.0021305272821336985
1714858319559409400,3.137409423828125,0.0021305272821336985,0.0031957910396158695,-0.018109481781721115
1714858319569358800,3.14735888671875,0.0010652636410668492,0.02024000883102417,-0.03621896356344223
1714858319579308500,3.15730859375,0.0074568456038832664,0.021305272355675697,-0.04793686419725418
1714858319589258000,3.167258056640625,0.017044218257069588,0.011717899702489376,-0.04900212585926056
1714858319599207400,3.17720751953125,0.021305272355675697,-0.0010652636410668492,-0.042610544711351395
1714858319609156900,3.187156982421875,0.019174745306372643,-0.004261054564267397,-0.03728422895073891
1714858319619106300,3.197106201171875,0.013848427683115005,0.0074568456038832664,-0.030892645940184593
1714858319629055700,3.2070556640625,0.013848427683115005,0.022370535880327225,-0.02769685536623001
1714858319639005200,3.217005126953125,0.019174745306372643,0.023435799404978752,-0.029827382415533066
1714858319648955000,3.226954833984375,0.029827382415533066,0.008522109128534794,-0.034088436514139175
1714858319658904300,3.236904296875,0.02876211889088154,-0.008522109128534794,-0.03195790946483612
1714858319668853800,3.246853759765625,0.018109481781721115,-0.008522109128534794,-0.02450106292963028
1714858319678803200,3.25680322265625,0.006391582079231739,0.006391582079231739,-0.022370535880327225
1714858319688752600,3.266752685546875,0.0031957910396158695,0.02024000883102417,-0.026631591841578484
1714858319698702000,3.2767021484375,0.0031957910396158695,0.017044218257069588,-0.029827382415533066
1714858319708651800,3.28665185546875,0.008522109128534794,0.0021305272821336985,-0.02876211889088154
1714858319718601200,3.296601318359375,0.013848427683115005,-0.011717899702489376,-0.02769685536623001
1714858319728550700,3.306550537109375,0.012783164158463478,-0.017044218257069588,-0.02769685536623001
1714858319738500000,3.3165,0.006391582079231739,-0.010652636177837849,-0.029827382415533066
1714858319748449500,3.326449462890625,-0.0021305272821336985,0.0031957910396158695,-0.0330231711268425
1714858319758399000,3.33639892578125,-0.004261054564267397,0.019174745306372643,-0.03728422895073891
1714858319768348400,3.346348388671875,-0.005326318088918924,0.03195790946483612,-0.03941475600004196
1714858319778298000,3.356298095703125,-0.0031957910396158695,0.029827382415533066,-0.04048001766204834
1714858319788247600,3.36624755859375,0.0021305272821336985,0.017044218257069588,-0.04474107176065445
1714858319798197000,3.376197021484375,0.006391582079231739,0.012783164158463478,-0.04048001766204834
1714858319808146400,3.386146484375,0.0021305272821336985,0.013848427683115005,-0.023435799404978752
1714858319818095900,3.396095947265625,-0.0074568456038832664,0.0031957910396158695,0.0031957910396158695
1714858319828045300,3.40604541015625,-0.008522109128534794,-0.004261054564267397,0.029827382415533066
1714858319837995000,3.4159951171875,-0.0031957910396158695,-0.0074568456038832664,0.04793686419725418
1714858319847944400,3.4259443359375,0.009587372653186321,-0.01597895473241806,0.050067391246557236
1714858319857894000,3.435893798828125,0.025566328316926956,-0.023435799404978752,0.029827382415533066
1714858319867843300,3.44584326171875,0.03621896356344223,-0.014913691207766533,-0.0021305272821336985
1714858319877792800,3.455792724609375,0.03515370190143585,0.0031957910396158695,-0.030892645940184593
1714858319887742200,3.4657421875,0.02876211889088154,0.022370535880327225,-0.046871598809957504
1714858319897691600,3.475691650390625,0.019174745306372643,0.03621896356344223,-0.04793686419725418
1714858319907641300,3.485641357421875,0.012783164158463478,0.026631591841578484,-0.04048001766204834
1714858319917590800,3.4955908203125,0.013848427683115005,0.008522109128534794,-0.023435799404978752
1714858319927540200,3.505540283203125,0.01597895473241806,-0.011717899702489376,-0.0074568456038832664
1714858319937489700,3.51548974609375,0.014913691207766533,-0.023435799404978752,0
1714858319947439000,3.525439208984375,0.011717899702489376,-0.017044218257069588,0.0021305272821336985
1714858319957388500,3.535388427734375,0.009587372653186321,-0.008522109128534794,-0.0031957910396158695
1714858319967338200,3.545338134765625,0.011717899702489376,-0.005326318088918924,-0.012783164158463478
1714858319977287700,3.55528759765625,0.013848427683115005,0.0010652636410668492,-0.02024000883102417
1714858319987237000,3.565237060546875,0.019174745306372643,0.011717899702489376,-0.022370535880327225
1714858319997186600,3.5751865234375,0.02876211889088154,0.02024000883102417,-0.017044218257069588
1714858320007136000,3.585135986328125,0.03728422895073891,0.021305272355675697,-0.004261054564267397
1714858320017085400,3.59508544921875,0.03941475600004196,0.011717899702489376,0.008522109128534794
1714858320027035000,3.605034912109375,0.03621896356344223,-0.009587372653186321,0.009587372653186321
1714858320036984600,3.614984619140625,0.029827382415533066,-0.022370535880327225,0.004261054564267397
1714858320046934000,3.62493408203125,0.023435799404978752,-0.022370535880327225,-0.006391582079231739
1714858320056883500,3.634883544921875,0.014913691207766533,-0.018109481781721115,-0.018109481781721115
1714858320066833000,3.6448330078125,0.008522109128534794,-0.006391582079231739,-0.023435799404978752
1714858320076782300,3.6547822265625,-0.0021305272821336985,0.0021305272821336985,-0.025566328316926956
1714858320086731800,3.664731689453125,-0.014913691207766533,-0.0010652636410668492,-0.02450106292963028
1714858320096681200,3.67468115234375,-0.019174745306372643,-0.018109481781721115,-0.017044218257069588
1714858320106630700,3.684630615234375,-0.021305272355675697,-0.038349490612745285,-0.009587372653186321
1714858320116580000,3.694580078125,-0.02450106292963028,-0.042610544711351395,-0.004261054564267397
1714858320126529500,3.704529541015625,-0.029827382415533066,-0.029827382415533066,0.0031957910396158695
1714858320136479000,3.71447900390625,-0.038349490612745285,-0.013848427683115005,0.010652636177837849
1714858320146428400,3.724428466796875,-0.045806337147951126,0.0010652636410668492,0.006391582079231739
1714858320156377900,3.7343779296875,-0.04900212585926056,0.008522109128534794,0
1714858320166327300,3.744327392578125,-0.05113265663385391,0.006391582079231739,-0.004261054564267397
1714858320176276700,3.75427685546875,-0.050067391246557236,-0.005326318088918924,-0.008522109128534794
1714858320186226200,3.76422607421875,-0.046871598809957504,-0.021305272355675697,-0.008522109128534794
1714858320196175600,3.774175537109375,-0.04474107176065445,-0.02876211889088154,-0.013848427683115005
1714858320206125000,3.784125,-0.042610544711351395,-0.018109481781721115,-0.026631591841578484
1714858320216074200,3.79407421875,-0.038349490612745285,0.005326318088918924,-0.045806337147951126
1714858320226023700,3.804023681640625,-0.029827382415533066,0.014913691207766533,-0.06072002649307251
1714858320235973000,3.81397314453125,-0.019174745306372643,0.0031957910396158695,-0.06817687302827835
1714858320245922600,3.823922607421875,-0.013848427683115005,-0.010652636177837849,-0.066046342253685
1714858320255872000,3.8338720703125,-0.014913691207766533,-0.006391582079231739,-0.0564589723944664
1714858320265821400,3.843821533203125,-0.017044218257069588,0.005326318088918924,-0.03941475600004196
1714858320275771000,3.85377099609375,-0.014913691207766533,0.012783164158463478,-0.025566328316926956
1714858320285720300,3.86372021484375,-0.005326318088918924,0.009587372653186321,-0.025566328316926956
1714858320295669800,3.873669677734375,0.009587372653186321,-0.0021305272821336985,-0.029827382415533066
1714858320305619200,3.883619140625,0.025566328316926956,-0.01597895473241806,-0.03515370190143585
1714858320315568600,3.893568603515625,0.03621896356344223,-0.026631591841578484,-0.034088436514139175
1714858320325518000,3.90351806640625,0.042610544711351395,-0.021305272355675697,-0.023435799404978752
1714858320335467500,3.913467529296875,0.042610544711351395,-0.004261054564267397,-0.013848427683115005
1714858320345417000,3.9234169921875,0.03728422895073891,0.014913691207766533,-0.008522109128534794
1714858320355366400,3.933366455078125,0.03195790946483612,0.026631591841578484,-0.006391582079231739
1714858320365315800,3.94331591796875,0.02769685536623001,0.026631591841578484,-0.006391582079231739
1714858320375265300,3.953265380859375,0.029827382415533066,0.014913691207766533,-0.008522109128534794
1714858320385214700,3.963214599609375,0.02876211889088154,0,-0.006391582079231739
1714858320395164200,3.9731640625,0.022370535880327225,-0.004261054564267397,0.008522109128534794
1714858320405113600,3.983113525390625,0.02024000883102417,0.005326318088918924,0.034088436514139175
1714858320415063000,3.99306298828125,0.03195790946483612,0.009587372653186321,0.05539371073246002
1714858320425012700,4.0030126953125,0.05326318368315697,0.01597895473241806,0.05965476483106613
1714858320434962200,4.012962158203125,0.06924213469028473,0.03728422895073891,0.05752423778176308
1714858320444911600,4.02291162109375,0.07563371956348419,0.08096003532409668,0.06711161136627197
1714858320454861000,4.032861083984375,0.07456845790147781,0.13209268450737,0.09054741263389587
1714858320464810500,4.042810546875,0.07456845790147781,0.15339796245098114,0.12570111453533173
1714858320474760000,4.052760009765625,0.07456845790147781,0.11398320645093918,0.1693769246339798
1714858320484709600,4.062709716796875,0.08735162019729614,0.013848427683115005,0.2311622053384781
1714858320494659000,4.0726591796875,0.11185268312692642,-0.11930952966213226,0.30892646312713623
1714858320504608500,4.0826083984375,0.11185268312692642,-0.25140222907066345,0.3717769980430603
1714858320514558000,4.092557861328125,0.09693899005651474,-0.32703593373298645,0.4410191476345062
1714858320524507400,4.10250732421875,0.05326318368315697,-0.2865559160709381,0.5763076543807983
1714858320534456800,4.112456787109375,-0.012783164158463478,-0.17150744795799255,0.762728750705719
1714858320544406300,4.12240625,-0.058589499443769455,-0.05752423778176308,0.9470193982124329
1714858320554356000,4.13235595703125,-0.061785291880369186,0.07776424288749695,1.081242561340332
1714858320564305400,4.142305419921875,-0.054328445345163345,0.1651158630847931,1.1132005453109741
1714858320574254800,4.1522548828125,-0.061785291880369186,0.12889690697193146,1.0918952226638794
1714858320584204300,4.162204345703125,-0.08735162019729614,-0.010652636177837849,1.0556762218475342
1714858320594153700,4.17215380859375,-0.10865689069032669,-0.34621068835258484,0.9747162461280823
1714858320604103200,4.182103271484375,-0.19600850343704224,-0.7126613855361938,0.9267793893814087
1714858320614052900,4.192052978515625,-0.4271707236766815,-0.791490912437439,0.9289098978042603
1714858320624002300,4.202002197265625,-0.6040045022964478,-0.9044088125228882,0.9161267280578613
1714858320633951700,4.21195166015625,-0.7190529704093933,-1.0311752557754517,0.921453058719635
1714858320643901200,4.221901123046875,-0.7925561666488647,-1.1089394092559814,0.9161267280578613
1714858320653850600,4.2318505859375,-0.7723161578178406,-1.0524804592132568,0.8575372099876404
1714858320663800000,4.241800048828125,-0.678572952747345,-0.8319709300994873,0.6998782157897949
1714858320673749500,4.25174951171875,-0.5603286623954773,-0.49108654260635376,0.4751075804233551
1714858320683699200,4.26169921875,-0.40799596905708313,-0.07669898122549057,0.21411798894405365
1714858320693648600,4.271648681640625,-0.24607589840888977,0.2577938139438629,-0.06391581892967224
1714858320703598000,4.28159814453125,-0.12037479132413864,0.32597067952156067,-0.26951169967651367
1714858320713547500,4.291547607421875,-0.0564589723944664,0.122505322098732,-0.30786117911338806
1714858320723497000,4.3014970703125,-0.05326318368315697,-0.2162485122680664,-0.1970737725496292
1714858320733446400,4.3114462890625,-0.10013478249311447,-0.5922865867614746,-0.019174745306372643
1714858320743396000,4.32139599609375,-0.1555284857749939,-0.8468846082687378,0.1310274302959442
1714858320753345500,4.331345458984375,-0.20453062653541565,-0.9086698889732361,0.18642114102840424
1714858320763295000,4.341294921875,-0.28549066185951233,-0.6934866309165955,0.1555284857749939
1714858320773244400,4.351244384765625,-0.37816858291625977,-0.2961432933807373,0.06285055726766586
1714858320783193900,4.36119384765625,-0.4431496858596802,0.1416800618171692,-0.03728422895073891
1714858320793143300,4.371143310546875,-0.45486757159233093,0.4836297035217285,-0.1310274302959442
1714858320803092700,4.3810927734375,-0.4388886094093323,0.452737033367157,-0.19920429587364197
1714858320813042400,4.39104248046875,-0.442084401845932,0.0564589723944664,-0.23222747445106506
1714858320822992000,4.400991943359375,-0.4623244106769562,-0.3717769980430603,-0.2503369450569153
1714858320832941300,4.41094140625,-0.4740423262119293,-0.6519413590431213,-0.24181485176086426
1714858320842890800,4.420890869140625,-0.46338969469070435,-0.8404930233955383,-0.20026956498622894
1714858320852840200,4.430840087890625,-0.40586546063423157,-0.9747162461280823,-0.14807164669036865
1714858320862789600,4.44078955078125,-0.320644348859787,-0.9693899154663086,-0.10226531326770782
1714858320872739300,4.4507392578125,-0.2205095738172531,-0.8362319469451904,-0.07456845790147781
1714858320882688800,4.460688720703125,-0.12144005298614502,-0.6562023758888245,-0.10013478249311447
1714858320892638200,4.47063818359375,-0.06072002649307251,-0.4378233551979065,-0.21731378138065338
1714858320902587600,4.480587646484375,-0.06391581892967224,-0.16405059397220612,-0.39840859174728394
1714858320912537000,4.490537109375,-0.07456845790147781,0.04048001766204834,-0.5944170951843262
1714858320922486500,4.500486572265625,-0.0703074038028717,0.05539371073246002,-0.7584677338600159
1714858320932436000,4.51043603515625,-0.05965476483106613,-0.10865689069032669,-0.8404930233955383
1714858320942385700,4.5203857421875,-0.02450106292963028,-0.3632549047470093,-0.8138614296913147
1714858320952335000,4.530335205078125,0.042610544711351395,-0.6317013502120972,-0.687095046043396
1714858320962284500,4.540284423828125,0.12144005298614502,-0.8032087683677673,-0.5028044581413269
1714858320972234000,4.55023388671875,0.188551664352417,-0.8564719557762146,-0.33236226439476013
1714858320982183400,4.560183349609375,0.21411798894405365,-0.8223835229873657,-0.2205095738172531
1714858320992132900,4.5701328125,0.17683376371860504,-0.7446193099021912,-0.16085481643676758
1714858321002082600,4.58008251953125,0.10652636736631393,-0.7488803267478943,-0.11930952966213226
1714858321012032000,4.590031982421875,0.03941475600004196,-0.9022783041000366,-0.09054741263389587
1714858321021981400,4.5999814453125,-0.019174745306372643,-1.0972214937210083,-0.10226531326770782
1714858321031931000,4.609930908203125,-0.045806337147951126,-1.210139513015747,-0.14913691580295563
1714858321041880300,4.61988037109375,-0.0330231711268425,-1.2144005298614502,-0.21411798894405365
1714858321051829800,4.629829833984375,0.04048001766204834,-1.0982868671417236,-0.2833601236343384
1714858321061779200,4.639779296875,0.18961693346500397,-0.8607330322265625,-0.3802991211414337
1714858321071729000,4.64972900390625,0.3675159513950348,-0.4793686270713806,-0.5134570598602295
1714858321081678300,4.65967822265625,0.574177086353302,0.011717899702489376,-0.6562023758888245
1714858321091627800,4.669627685546875,0.7819035053253174,0.5486107468605042,-0.784034013748169
1714858321101577200,4.6795771484375,0.9992172718048096,1.143027901649475,-0.8692551255226135
1714858321111526700,4.689526611328125,1.1526153087615967,1.5819164514541626,-0.8969519734382629
1714858321121476000,4.69947607421875,1.1952258348464966,1.532914400100708,-0.817057192325592
1714858321131425800,4.70942578125,1.1227878332138062,1.1664637327194214,-0.6050697565078735
1714858321141375200,4.719375244140625,1.009869933128357,0.7467498183250427,-0.3067959249019623
1714858321151324700,4.72932470703125,0.9139962196350098,0.3802991211414337,0.018109481781721115
1714858321161274000,4.739274169921875,0.8447540402412415,0.13422322273254395,0.28975170850753784
1714858321171223600,4.7492236328125,0.8181225061416626,0.05219791829586029,0.4793686270713806
1714858321181173000,4.759173095703125,0.8319709300994873,0.09587372839450836,0.5709813237190247
1714858321191122400,4.769122314453125,0.8607330322265625,0.2684464454650879,0.5581981539726257
1714858321201072000,4.779072021484375,0.8596677780151367,0.5060002207756042,0.4751075804233551
1714858321211021600,4.789021484375,0.8064045906066895,0.7041392922401428,0.366450697183609
1714858321220971000,4.798970947265625,0.6593981981277466,0.854341447353363,0.301469624042511
1714858321230920400,4.80892041015625,0.4655202031135559,0.9629983305931091,0.2545980215072632
1714858321240870000,4.818869873046875,0.26098960638046265,0.967259407043457,0.2354232668876648
1714858321250819300,4.8288193359375,0.11611373722553253,0.7435539960861206,0.22477063536643982
1714858321260768800,4.838768798828125,0.011717899702489376,0.38242965936660767,0.21944430470466614
1714858321270718500,4.848718505859375,-0.0703074038028717,0.07563371956348419,0.19600850343704224
1714858321280668000,4.85866796875,-0.1267663687467575,-0.019174745306372643,0.1363537460565567
1714858321290617300,4.868617431640625,-0.1736379712820053,0.1502021700143814,0.054328445345163345
1714858321300566800,4.87856689453125,-0.17683376371860504,0.3110569715499878,0.03728422895073891
1714858321310516200,4.88851611328125,-0.1736379712820053,0.498543381690979,-0.0010652636410668492
1714858321320465700,4.898465576171875,-0.14274533092975616,0.5613939166069031,-0.014913691207766533
1714858321330415000,4.9084150390625,-0.12357058376073837,0.48789075016975403,-0.03195790946483612
1714858321340364500,4.918364501953125,-0.1832253485918045,0.44421494007110596,-0.06391581892967224
1714858321350314000,4.92831396484375,-0.26951169967651367,0.4932170510292053,-0.09480846673250198
1714858321360263400,4.938263427734375,-0.3238401412963867,0.4761728346347809,-0.1129179447889328
1714858321370212900,4.948212890625,-0.3387538492679596,0.442084401845932,-0.14274533092975616
1714858321380162300,4.958162353515625,-0.3163833022117615,0.5880255103111267,-0.20346535742282867
1714858321390111500,4.968111572265625,-0.27909907698631287,0.8277098536491394,-0.2918822467327118
1714858321400061000,4.97806103515625,-0.19387798011302948,1.1046783924102783,-0.38456016778945923
1714858321410010400,4.98801025390625,-0.09267793595790863,1.2676637172698975,-0.39734333753585815
1714858321419959800,4.997959716796875,0.04474107176065445,1.3177311420440674,-0.29827383160591125
1714858321429909200,5.0079091796875,0.16085481643676758,1.1622025966644287,-0.058589499443769455
1714858321439858700,5.017858642578125,0.13954953849315643,0.8490151166915894,0.25672852993011475
1714858321449808100,5.02780810546875,0.041545283049345016,0.5571328997612,0.5411539077758789
1714858321459757600,5.037757568359375,-0.038349490612745285,0.320644348859787,0.7307708859443665
1714858321469707000,5.04770703125,-0.09054741263389587,0.06391581892967224,0.8287751078605652
1714858321479656400,5.057656494140625,-0.12357058376073837,-0.12463584542274475,0.8330361843109131
1714858321489606000,5.06760595703125,-0.14807164669036865,-0.245010644197464,0.7574024200439453
1714858321499555300,5.077555419921875,-0.20026956498622894,-0.5592634081840515,0.687095046043396
1714858321509504800,5.0875048828125,-0.28975170850753784,-0.9182572364807129,0.5784381628036499
1714858321519454200,5.0974541015625,-0.3440801501274109,-0.2215748429298401,0.17470324039459229
1714858321529403600,5.107403564453125,-0.3067959249019623,0.32810118794441223,-0.10226531326770782
1714858321539353000,5.11735302734375,-0.23329274356365204,0.5869602560997009,-0.2950780391693115
1714858321549302500,5.127302490234375,-0.16298533976078033,0.7563371658325195,-0.40799596905708313
1714858321559252000,5.137251953125,-0.11078742146492004,0.9022783041000366,-0.45486757159233093
1714858321569201400,5.147201416015625,-0.07243792712688446,0.8884298801422119,-0.4005391299724579
1714858321579150600,5.157150634765625,-0.01597895473241806,0.7424887418746948,-0.27483803033828735
1714858321589100000,5.16710009765625,0.07243792712688446,0.5997434258460999,-0.13315795361995697
1714858321599049500,5.177049560546875,0.1928127259016037,0.43036651611328125,-0.0021305272821336985
1714858321608999000,5.1869990234375,0.34940648078918457,0.20985694229602814,0.10439583659172058
1714858321618948400,5.1969482421875,0.5145223140716553,-0.042610544711351395,0.14381058514118195
1714858321628897800,5.206897705078125,0.6157223582267761,-0.2162485122680664,0.11078742146492004
1714858321638847200,5.21684716796875,0.611461341381073,-0.29933908581733704,0.050067391246557236
1714858321648796700,5.226796630859375,0.50706547498703,-0.2929475009441376,0.0074568456038832664
1714858321658746000,5.23674609375,0.3472759425640106,-0.21411798894405365,0.017044218257069588
1714858321668695600,5.246695556640625,0.22370536625385284,-0.08735162019729614,0.038349490612745285
1714858321678645000,5.25664501953125,0.1789642870426178,0.06285055726766586,0.03515370190143585
1714858321688594400,5.266594482421875,0.2119874656200409,0.2119874656200409,-0.026631591841578484
1714858321698543900,5.2765439453125,0.2950780391693115,0.3249054253101349,-0.13209268450737
1714858321708493300,5.286493408203125,0.4239749312400818,0.3344927728176117,-0.25140222907066345
1714858321718442800,5.29644287109375,0.595482349395752,0.20346535742282867,-0.33555805683135986
1714858321728392200,5.30639208984375,0.7808382511138916,-0.04793686419725418,-0.37390753626823425
1714858321738342000,5.316341796875,0.8884298801422119,-0.2354232668876648,-0.3611243665218353
1714858321748291300,5.326291259765625,0.8372972011566162,-0.19068218767642975,-0.26631590723991394
1714858321758240800,5.33624072265625,0.6636592745780945,-0.017044218257069588,-0.10120004415512085
1714858321768190200,5.346190185546875,0.45806336402893066,0.18642114102840424,0.09374319761991501
1714858321778139600,5.3561396484375,0.3067959249019623,0.39734333753585815,0.24288010597229004
1714858321788089000,5.366089111328125,0.26525065302848816,0.6157223582267761,0.2929475009441376
1714858321798038500,5.37603857421875,0.33555805683135986,0.7424887418746948,0.2545980215072632
1714858321807988200,5.38598828125,0.4740423262119293,0.7499455809593201,0.16618113219738007
1714858321817937700,5.395937744140625,0.611461341381073,0.6977477073669434,0.07776424288749695
1714858321827887000,5.40588720703125,0.708400309085846,0.6178529262542725,0.03728422895073891
1714858321837836500,5.41583642578125,0.7339666485786438,0.5273054838180542,0.03621896356344223
1714858321847786000,5.425785888671875,0.6913561224937439,0.4005391299724579,0.06072002649307251
1714858321857735400,5.4357353515625,0.6402234435081482,0.26951169967651367,0.09480846673250198
1714858321867684900,5.445684814453125,0.6103960871696472,0.1832253485918045,0.11611373722553253
1714858321877634600,5.455634521484375,0.590156078338623,0.17044217884540558,0.10546109825372696
1714858321887584000,5.465583984375,0.5592634081840515,0.20985694229602814,0.07137266546487808
1714858321897533400,5.475533447265625,0.53582763671875,0.30253487825393677,0.006391582079231739
1714858321907483000,5.48548291015625,0.5464802384376526,0.43143177032470703,-0.08096003532409668
1714858321917432300,5.495432373046875,0.565654993057251,0.5305013060569763,-0.15765902400016785
1714858321927381800,5.5053818359375,0.5848297476768494,0.5699160695075989,-0.19600850343704224
1714858321937331500,5.51533154296875,0.6040045022964478,0.5102612972259521,-0.18002955615520477
1714858321947281000,5.525281005859375,0.5997434258460999,0.3920170068740845,-0.12037479132413864
1714858321957230300,5.535230224609375,0.5677855014801025,0.2737727463245392,-0.038349490612745285
1714858321967179800,5.5451796875,0.5145223140716553,0.16085481643676758,0.03941475600004196
1714858321977129200,5.555129150390625,0.4655202031135559,0.05326318368315697,0.11824426054954529
1714858321987078700,5.56507861328125,0.4101265072822571,-0.02024000883102417,0.17683376371860504
1714858321997028000,5.575028076171875,0.36858120560646057,-0.023435799404978752,0.19068218767642975
1714858322006977800,5.584977783203125,0.36005911231040955,0.023435799404978752,0.16831165552139282
1714858322016927200,5.59492724609375,0.3653854429721832,0.07563371956348419,0.11930952966213226
1714858322026876700,5.604876708984375,0.38242965936660767,0.08841688185930252,0.05752423778176308
1714858322036826000,5.614826171875,0.4197138845920563,0.07563371956348419,-0.011717899702489376
1714858322046775600,5.624775634765625,0.4367581009864807,0.0894821435213089,-0.08841688185930252
1714858322056725000,5.63472509765625,0.4197138845920563,0.09374319761991501,-0.1502021700143814
1714858322066674700,5.6446748046875,0.37390753626823425,0.1310274302959442,-0.17683376371860504
1714858322076624100,5.6546240234375,0.3142527639865875,0.19600850343704224,-0.18535587191581726
1714858322086573600,5.664573486328125,0.2503369450569153,0.27590328454971313,-0.1693769246339798
1714858322096523000,5.67452294921875,0.17683376371860504,0.1981390416622162,-0.0894821435213089
1714858322106472400,5.684472412109375,0.09480846673250198,-0.04048001766204834,0.034088436514139175
1714858322116422000,5.694421875,0.02876211889088154,-0.2577938139438629,0.1416800618171692
1714858322126371300,5.704371337890625,-0.018109481781721115,-0.3813643753528595,0.2024000883102417
1714858322136321000,5.714321044921875,-0.029827382415533066,-0.37497279047966003,0.2119874656200409
1714858322146270500,5.7242705078125,-0.0074568456038832664,-0.2865559160709381,0.15339796245098114
1714858322156220000,5.734219970703125,0.038349490612745285,-0.15126743912696838,0.05326318368315697
1714858322166169300,5.74416943359375,0.06924213469028473,-0.04900212585926056,-0.041545283049345016
1714858322176118800,5.754118896484375,0.06711161136627197,-0.08202529698610306,-0.1267663687467575
1714858322186068200,5.764068115234375,0.05752423778176308,-0.18216007947921753,-0.1970737725496292
1714858322196018000,5.774017822265625,0.04048001766204834,-0.26631590723991394,-0.27590328454971313
1714858322205967000,5.783967041015625,0.02024000883102417,-0.2545980215072632,-0.3707117438316345
1714858322215916500,5.79391650390625,-0.0010652636410668492,-0.1459411233663559,-0.4665854871273041
1714858322225866000,5.803865966796875,-0.010652636177837849,-0.03515370190143585,-0.5475454926490784
1714858322235815400,5.8138154296875,-0.017044218257069588,0.006391582079231739,-0.6103960871696472
1714858322245764900,5.823764892578125,-0.029827382415533066,-0.05965476483106613,-0.6402234435081482
1714858322255714300,5.83371435546875,-0.05752423778176308,-0.20453062653541565,-0.657267689704895
1714858322265663700,5.843663818359375,-0.09587372839450836,-0.3302317261695862,-0.6902908682823181
1714858322275613200,5.85361328125,-0.11611373722553253,-0.301469624042511,-0.7659245729446411
1714858322285562600,5.863562744140625,-0.10865689069032669,-0.20453062653541565,-0.8799077868461609
1714858322295512000,5.873511962890625,-0.09800425171852112,-0.12996216118335724,-0.9683246612548828
1714858322305461500,5.88346142578125,-0.11078742146492004,-0.06285055726766586,-1.002413034439087
1714858322315411000,5.893410888671875,-0.1416800618171692,0.0564589723944664,-0.9619330763816833
1714858322325360400,5.9033603515625,-0.15126743912696838,0.14381058514118195,-0.8788425326347351
1714858322335309800,5.913309814453125,-0.1267663687467575,0.1310274302959442,-0.7989477515220642
1714858322345259300,5.92325927734375,-0.09587372839450836,0.06924213469028473,-0.7584677338600159
1714858322355208700,5.933208740234375,-0.08096003532409668,0.014913691207766533,-0.7605982422828674
1714858322365158100,5.943158203125,-0.07882951200008392,-0.03728422895073891,-0.7861645817756653
1714858322375107600,5.953107666015625,-0.07563371956348419,-0.0703074038028717,-0.8223835229873657
1714858322385057000,5.96305712890625,-0.03728422895073891,-0.09054741263389587,-0.8404930233955383
1714858322395006500,5.97300634765625,0.041545283049345016,-0.15126743912696838,-0.829840362071991
1714858322404955600,5.98295556640625,0.09800425171852112,-0.18535587191581726,-0.7755119204521179
1714858322414905000,5.992905029296875,0.06498108059167862,-0.10759162902832031,-0.6530066132545471
1714858322424854500,6.0028544921875,-0.013848427683115005,-0.006391582079231739,-0.49641284346580505
1714858322434804000,6.012803955078125,-0.06285055726766586,0.10226531326770782,-0.36964648962020874
1714858322444753400,6.02275341796875,-0.07563371956348419,0.13954953849315643,-0.32170963287353516
1714858322454702800,6.032702880859375,-0.08522108942270279,0.09693899005651474,-0.35153698921203613
1714858322464652300,6.04265234375,-0.08096003532409668,0.034088436514139175,-0.4282359778881073
1714858322474601700,6.052601806640625,-0.058589499443769455,0.0021305272821336985,-0.5613939166069031
1714858322484551200,6.06255126953125,0.017044218257069588,-0.050067391246557236,-0.77870774269104
1714858322494500600,6.07250048828125,0.10759162902832031,-0.13848426938056946,-1.0130656957626343
1714858322504450000,6.082449951171875,0.1555284857749939,-0.025566328316926956,-1.1920300722122192
1714858322514399500,6.0923994140625,0.1597895473241806,0.25566327571868896,-1.3166658878326416
1714858322524349000,6.102348876953125,0.12996216118335724,0.5336970686912537,-1.3656679391860962
1714858322534298400,6.11229833984375,0.08628635853528976,0.6977477073669434,-1.3305143117904663
1714858322544247800,6.122247802734375,0.0564589723944664,0.7392929792404175,-1.2250531911849976
1714858322554197200,6.132197265625,0.050067391246557236,0.7265098094940186,-1.1068089008331299
1714858322564146700,6.142146728515625,0.05326318368315697,0.6625939607620239,-1.0301098823547363
1714858322574096100,6.15209619140625,0.034088436514139175,0.5997434258460999,-0.9534109830856323
1714858322584045600,6.162045654296875,-0.006391582079231739,0.5709813237190247,-0.8255793452262878
1714858322593995000,6.1719951171875,-0.038349490612745285,0.4846949577331543,-0.6732466220855713
1714858322603944200,6.181944091796875,-0.07137266546487808,0.35047173500061035,-0.4974781274795532
1714858322613893600,6.1918935546875,-0.10972215235233307,0.2258358895778656,-0.2737727463245392
1714858322623843000,6.201843017578125,-0.15339796245098114,0.11504847556352615,-0.022370535880327225
1714858322633792500,6.21179248046875,-0.17789903283119202,-0.050067391246557236,0.19174745678901672
1714858322643742000,6.221741943359375,-0.1789642870426178,-0.24074958264827728,0.3249054253101349
1714858322653691400,6.23169140625,-0.18642114102840424,-0.39734333753585815,0.37923386693000793
1714858322663640800,6.241640869140625,-0.22370536625385284,-0.5006738901138306,0.4239749312400818
1714858322673590300,6.25159033203125,-0.26418536901474,-0.5454149842262268,0.5102612972259521
1714858322683539700,6.261539794921875,-0.28442537784576416,-0.5155876278877258,0.6093307733535767
1714858322693489200,6.2714892578125,-0.2876211702823639,-0.3430148959159851,0.657267689704895
1714858322703438600,6.2814384765625,-0.2631201148033142,-0.10972215235233307,0.6348971128463745
1714858322713388000,6.291387939453125,-0.2311622053384781,0.013848427683115005,0.5880255103111267
1714858322723337500,6.30133740234375,-0.1928127259016037,0.012783164158463478,0.5731118321418762
1714858322733287000,6.311286865234375,-0.16405059397220612,-0.03621896356344223,0.602939248085022
1714858322743236400,6.321236328125,-0.18429060280323029,-0.08628635853528976,0.6807034611701965
1714858322753185800,6.331185791015625,-0.24074958264827728,-0.1597895473241806,0.8042740225791931
1714858322763135200,6.34113525390625,-0.2684464454650879,-0.3067959249019623,0.9321056604385376
1714858322773084700,6.351084716796875,-0.2545980215072632,-0.5081307291984558,1.0418277978897095
1714858322783034000,6.3610341796875,-0.22370536625385284,-0.7467498183250427,1.1302447319030762
1714858322792983600,6.370983642578125,-0.19068218767642975,-0.9384972453117371,1.2325100898742676
1714858322802933000,6.38093310546875,-0.18429060280323029,-1.1068089008331299,1.3720595836639404
1714858322812882700,6.390882568359375,-0.20559588074684143,-1.2239879369735718,1.5403711795806885
1714858322822832000,6.40083203125,-0.23435799777507782,-1.1707247495651245,1.7033565044403076
1714858322832781600,6.410781494140625,-0.3057306706905365,-0.8990825414657593,1.8141440153121948
1714858322842731000,6.42073095703125,-0.3909517526626587,-0.5368928909301758,1.8407756090164185
1714858322852680400,6.430680419921875,-0.4953475892543793,-0.26631590723991394,1.7843165397644043
1714858322862630000,6.4406298828125,-0.611461341381073,-0.2492716908454895,1.7278575897216797
1714858322872579600,6.45057958984375,-0.7052045464515686,-0.34621068835258484,1.637310266494751
1714858322882529000,6.460529052734375,-0.7488803267478943,-0.6210486888885498,1.515870213508606
1714858322892478500,6.470478515625,-0.7382277250289917,-1.0088046789169312,1.4551501274108887
1714858322902428000,6.480427978515625,-0.6647245287895203,-1.3965606689453125,1.4018869400024414
1714858322912377300,6.49037744140625,-0.5603286623954773,-1.7970997095108032,1.3134701251983643
1714858322922326800,6.500326904296875,-0.5230444669723511,-2.024000883102417,1.2186615467071533
1714858322932276200,6.510276123046875,-0.5826992392539978,-1.7449018955230713,1.123853087425232
1714858322942226000,6.520225830078125,-0.5869602560997009,-1.0322405099868774,0.988564670085907
1714858322952175400,6.53017529296875,-0.4612591564655304,-0.38349491357803345,0.8372972011566162
1714858322962124800,6.540124755859375,-0.2215748429298401,0.12357058376073837,0.754206657409668
1714858322972074200,6.55007421875,0.04900212585926056,0.433562308549881,0.7318361401557922
1714858322982023700,6.560023681640625,0.2300969511270523,0.5368928909301758,0.6583329439163208
1714858322991973000,6.56997314453125,0.36005911231040955,0.4974781274795532,0.5273054838180542
1714858323001922800,6.5799228515625,0.5251749753952026,0.3195790946483612,0.38242965936660767
1714858323011872300,6.589872314453125,0.7147918939590454,0.11611373722553253,0.2205095738172531
1714858323021821700,6.59982177734375,0.7829687595367432,0.04474107176065445,0.04048001766204834
1714858323031771100,6.609771240234375,0.7233139872550964,-0.011717899702489376,-0.07456845790147781
1714858323041720600,6.619720458984375,0.6125265955924988,-0.11504847556352615,-0.13209268450737
1714858323051670000,6.629669921875,0.5177181363105774,0.022370535880327225,-0.21944430470466614
1714858323061619500,6.639619384765625,0.5006738901138306,0.24288010597229004,-0.3802991211414337
1714858323071569200,6.649569091796875,0.4804339110851288,0.4516717791557312,-0.5837644934654236
1714858323081518600,6.6595185546875,0.44954127073287964,0.7030739784240723,-0.7925561666488647
1714858323091468000,6.669468017578125,0.4601939022541046,0.8777772188186646,-1.0311752557754517
1714858323101417500,6.67941748046875,0.46765074133872986,0.8884298801422119,-1.3038827180862427
1714858323111367000,6.689366943359375,0.4005391299724579,0.9139962196350098,-1.555284857749939
1714858323121316400,6.69931640625,0.2961432933807373,0.8735162019729614,-1.714009165763855
1714858323131266000,6.70926611328125,0.24074958264827728,0.9193225502967834,-1.7417060136795044
1714858323141215500,6.719215576171875,0.26098960638046265,0.9502151608467102,-1.6799207925796509
1714858323151165000,6.7291650390625,0.253532737493515,1.0652636289596558,-1.6255923509597778
1714858323161114400,6.7391142578125,0.21518325805664062,1.0908299684524536,-1.5946996212005615
1714858323171063800,6.749063720703125,0.17470324039459229,1.0727205276489258,-1.5563502311706543
1714858323181013200,6.75901318359375,0.21305273473262787,0.9257140755653381,-1.4029521942138672
1714858323190962700,6.768962646484375,0.29401275515556335,0.7744466662406921,-1.185638427734375
1714858323200912100,6.778912109375,0.4133222997188568,0.8223835229873657,-1.0556762218475342
1714858323210861600,6.788861572265625,0.5134570598602295,1.2197269201278687,-1.0578068494796753
1714858323220810800,6.798810791015625,0.6125265955924988,1.4775207042694092,-1.0503499507904053
1714858323230760200,6.80876025390625,0.590156078338623,1.4679332971572876,-0.9342362284660339
1714858323240709600,6.818709716796875,0.5262402296066284,1.3954954147338867,-0.7520761489868164
1714858323250659000,6.8286591796875,0.4569981098175049,1.2761858701705933,-0.544349730014801
1714858323260608500,6.8386083984375,0.30466538667678833,1.1717900037765503,-0.39840859174728394
1714858323270558000,6.848557861328125,0.12783163785934448,1.0311752557754517,-0.2727074921131134
1714858323280507400,6.85850732421875,-0.0330231711268425,0.9065393805503845,-0.13848426938056946
1714858323290456800,6.868456787109375,-0.13528847694396973,0.8649940490722656,-0.030892645940184593
1714858323300406300,6.87840625,-0.19387798011302948,0.7925561666488647,0.06817687302827835
1714858323310355700,6.888355712890625,-0.2258358895778656,0.657267689704895,0.19387798011302948
1714858323320305200,6.89830517578125,-0.18961693346500397,0.4665854871273041,0.28868645429611206
1714858323330254600,6.908254638671875,-0.12996216118335724,0.1970737725496292,0.3440801501274109
1714858323340204000,6.9182041015625,-0.08735162019729614,-0.13528847694396973,0.3941475450992584
1714858323350153500,6.928153564453125,-0.05219791829586029,-0.4463454782962799,0.42504018545150757
1714858323360103000,6.93810302734375,-0.03728422895073891,-0.632766604423523,0.4388886094093323
1714858323370052400,6.94805224609375,-0.07776424288749695,-0.6604634523391724,0.442084401845932
1714858323380001800,6.958001708984375,-0.20985694229602814,-0.619983434677124,0.4996086359024048
1714858323389951200,6.967951171875,-0.37284228205680847,-0.6050697565078735,0.6359623670578003
1714858323399900700,6.977900634765625,-0.4612591564655304,-0.565654993057251,0.829840362071991
1714858323409850000,6.98785009765625,-0.45380231738090515,-0.3856254518032074,1.0237183570861816
1714858323419799300,6.99779931640625,-0.433562308549881,-0.15872427821159363,1.1675289869308472
1714858323429748700,7.007748779296875,-0.4665854871273041,-0.02876211889088154,1.2676637172698975
1714858323439698200,7.0176982421875,-0.4889560043811798,-0.05752423778176308,1.3454279899597168
1714858323449647600,7.027647705078125,-0.452737033367157,-0.21305273473262787,1.404017448425293
1714858323459597000,7.03759716796875,-0.3632549047470093,-0.47830337285995483,1.4306490421295166
1714858323469546500,7.04754638671875,-0.2620548605918884,-0.8394277691841125,1.398691177368164
1714858323479496000,7.057495849609375,-0.21731378138065338,-1.2985563278198242,1.3507542610168457
1714858323489445400,7.0674453125,-0.31744855642318726,-1.691638708114624,1.344362735748291
1714858323499394800,7.077394775390625,-0.552871823310852,-1.726792335510254,1.3411669731140137
1714858323509344300,7.08734423828125,-0.7712509036064148,-1.4562153816223145,1.3049479722976685
1714858323519293700,7.097293701171875,-0.8479498624801636,-1.1941605806350708,1.2144005298614502
1714858323529243100,7.1072431640625,-0.8032087683677673,-1.0961562395095825,1.0759162902832031
1714858323539192600,7.117192626953125,-0.7052045464515686,-1.05674147605896,0.9065393805503845
1714858323549142000,7.12714208984375,-0.619983434677124,-0.9086698889732361,0.716922402381897
1714858323559091500,7.137091552734375,-0.5667202472686768,-0.678572952747345,0.5187833905220032
1714858323569041000,7.147041015625,-0.5134570598602295,-0.47830337285995483,0.3195790946483612
1714858323578990300,7.156990234375,-0.39734333753585815,-0.3526022732257843,0.12144005298614502
1714858323588939800,7.166939697265625,-0.2311622053384781,-0.35153698921203613,-0.06391581892967224
1714858323598889200,7.17688916015625,-0.05219791829586029,-0.5187833905220032,-0.24394537508487701
1714858323608838700,7.186838623046875,0.17470324039459229,-0.8575372099876404,-0.4037349224090576
1714858323618787800,7.196787841796875,0.4644549489021301,-1.272990107536316,-0.5326318144798279
1714858323628737300,7.2067373046875,0.7254445552825928,-1.6255923509597778,-0.6455497741699219
1714858323638686700,7.216686767578125,0.8745814561843872,-1.788577675819397,-0.7637940049171448
1714858323648636200,7.22663623046875,0.8554067015647888,-1.708682894706726,-0.8809730410575867
1714858323658585600,7.236585693359375,0.5858950018882751,-1.4157353639602661,-0.9789772629737854
1714858323668535000,7.24653515625,0.18109482526779175,-1.0524804592132568,-1.0322405099868774
1714858323678484500,7.256484375,-0.1789642870426178,-0.7616634964942932,-1.0279793739318848
1714858323688434000,7.266433837890625,-0.46765074133872986,-0.5145223140716553,-0.9715204238891602
1714858323698383400,7.27638330078125,-0.6647245287895203,-0.3238401412963867,-0.8990825414657593
1714858323708332800,7.286332763671875,-0.7552719116210938,-0.16192007064819336,-0.8511456251144409
1714858323718282200,7.2962822265625,-0.7360971570014954,-0.066046342253685,-0.8394277691841125
1714858323728231700,7.306231689453125,-0.6593981981277466,-0.07350318878889084,-0.854341447353363
1714858323738181000,7.31618115234375,-0.5507413148880005,-0.16192007064819336,-0.8649940490722656
1714858323748130600,7.326130615234375,-0.42504018545150757,-0.2673811614513397,-0.8522109389305115
1714858323758080000,7.336080078125,-0.3163833022117615,-0.27909907698631287,-0.8149266839027405
1714858323768029400,7.346029541015625,-0.24607589840888977,-0.16724638640880585,-0.7467498183250427
1714858323777979000,7.355978759765625,-0.2311622053384781,0.0894821435213089,-0.6647245287895203
1714858323787928300,7.36592822265625,-0.27590328454971313,0.4271707236766815,-0.5922865867614746
1714858323797877800,7.375877685546875,-0.33129698038101196,0.7616634964942932,-0.5507413148880005
1714858323807827200,7.3858271484375,-0.3707117438316345,1.0578068494796753,-0.5688507556915283
1714858323817776400,7.3957763671875,-0.38775596022605896,1.265533208847046,-0.6189181804656982
1714858323827725800,7.405725830078125,-0.3419496417045593,1.3954954147338867,-0.6583329439163208
1714858323837675300,7.41567529296875,-0.2673811614513397,1.5041522979736328,-0.6860297918319702
1714858323847624700,7.425624755859375,-0.20879167318344116,1.5733944177627563,-0.6860297918319702
1714858323857574100,7.43557421875,-0.15126743912696838,1.5371754169464111,-0.6306360960006714
1714858323867523600,7.445523681640625,-0.09480846673250198,1.5233269929885864,-0.5432844758033752
1714858323877473000,7.45547314453125,-0.030892645940184593,1.622396469116211,-0.498543381690979
1714858323887422500,7.46542236328125,0.022370535880327225,1.6575502157211304,-0.4793686270713806
1714858323897372000,7.475371826171875,0.054328445345163345,1.503087043762207,-0.4431496858596802
1714858323907321300,7.4853212890625,0.0703074038028717,1.2463585138320923,-0.37390753626823425
1714858323917270800,7.495270751953125,0.07456845790147781,1.0716552734375,-0.2492716908454895
1714858323927220200,7.50522021484375,0.0894821435213089,1.151550054550171,-0.09693899005651474
1714858323937169700,7.515169677734375,0.1129179447889328,1.4562153816223145,-0.019174745306372643
1714858323947119000,7.525119140625,0.16192007064819336,1.7363797426223755,-0.03728422895073891
1714858323957068500,7.535068603515625,0.25566327571868896,1.8205355405807495,-0.09587372839450836
1714858323967018000,7.54501806640625,0.3632549047470093,1.751293420791626,-0.1502021700143814
1714858323976967400,7.554967529296875,0.42077913880348206,1.6639418601989746,-0.20453062653541565
1714858323986916900,7.564916748046875,0.48682549595832825,1.7310534715652466,-0.2599243223667145
1714858323996866300,7.5748662109375,0.5464802384376526,1.8322534561157227,-0.31318750977516174
1714858324006816000,7.58481591796875,0.5550023317337036,1.755554437637329,-0.36858120560646057
1714858324016765400,7.594765380859375,0.53582763671875,1.5286533832550049,-0.40799596905708313
1714858324026715000,7.60471484375,0.498543381690979,1.2495542764663696,-0.4048001766204834
1714858324036664300,7.614664306640625,0.3994738757610321,0.9203878045082092,-0.3334275186061859
1714858324046613800,7.62461376953125,0.2545980215072632,0.5709813237190247,-0.24820642173290253
1714858324056563200,7.634563232421875,0.10759162902832031,0.3813643753528595,-0.18535587191581726
1714858324066512600,7.6445126953125,-0.01597895473241806,0.4506065249443054,-0.18216007947921753
1714858324076462300,7.65446240234375,-0.06391581892967224,0.6455497741699219,-0.2599243223667145
1714858324086411800,7.664411865234375,-0.06391581892967224,0.8639287948608398,-0.4143875539302826
1714858324096361200,7.674361328125,-0.014913691207766533,1.058872103691101,-0.6306360960006714
1714858324106310700,7.684310546875,0.06072002649307251,1.1888341903686523,-0.8479498624801636
1714858324116260000,7.694260009765625,0.09161267429590225,1.185638427734375,-1.0056089162826538
1714858324126209500,7.70420947265625,0.058589499443769455,1.0226531028747559,-1.0663288831710815
1714858324136159200,7.7141591796875,0.018109481781721115,0.7808382511138916,-0.9906951785087585
1714858324146108700,7.724108642578125,-0.01597895473241806,0.5699160695075989,-0.817057192325592
1714858324156058000,7.73405810546875,-0.06711161136627197,0.3376885652542114,-0.6210486888885498
1714858324166007600,7.744007568359375,-0.14381058514118195,0.061785291880369186,-0.4282359778881073
1714858324175957000,7.75395703125,-0.22690115869045258,-0.24288010597229004,-0.24820642173290253
1714858324185906400,7.763906494140625,-0.29401275515556335,-0.5209138989448547,-0.0798947736620903
1714858324195856000,7.77385595703125,-0.33555805683135986,-0.7456845641136169,0.04048001766204834
1714858324205805600,7.7838056640625,-0.3526022732257843,-0.9331709742546082,0.09374319761991501
1714858324215755000,7.793755126953125,-0.3419496417045593,-1.0503499507904053,0.1363537460565567
1714858324225704400,7.803704345703125,-0.3185138404369354,-1.0748510360717773,0.22796641290187836
1714858324235654000,7.81365380859375,-0.30360013246536255,-1.0130656957626343,0.3430148959159851
1714858324245603300,7.823603271484375,-0.2972085475921631,-0.9076046347618103,0.4463454782962799
1714858324255552800,7.833552734375,-0.2961432933807373,-0.8117309212684631,0.5390233993530273
1714858324265502200,7.843502197265625,-0.2865559160709381,-0.7435539960861206,0.6231792569160461
1714858324275452000,7.853451904296875,-0.2631201148033142,-0.7275750637054443,0.7158571481704712
1714858324285401300,7.8634013671875,-0.22796641290187836,-0.7904255986213684,0.8426235318183899
1714858324295350800,7.873350830078125,-0.1597895473241806,-0.9150614738464355,1.0088046789169312
1714858324305300200,7.88330029296875,-0.08522108942270279,-1.1110700368881226,1.202682614326477
1714858324315249700,7.893249755859375,-0.03515370190143585,-1.394430160522461,1.4104090929031372
1714858324325199000,7.90319921875,-0.0010652636410668492,-1.734249234199524,1.6319838762283325
1714858324335148500,7.9131484375,0.0021305272821336985,-2.0623505115509033,1.8535587787628174
1714858324345097700,7.92309765625,-0.018109481781721115,-2.3190789222717285,2.0325229167938232
1714858324355047200,7.933047119140625,-0.045806337147951126,-2.45649790763855,2.133723020553589
1714858324364996600,7.94299658203125,-0.07776424288749695,-2.475672721862793,2.1198747158050537
1714858324374946000,7.952946044921875,-0.0990695208311081,-2.3979084491729736,2.0154788494110107
1714858324384895500,7.9628955078125,-0.09267793595790863,-2.2210745811462402,1.8418408632278442
1714858324394845000,7.972844970703125,-0.041545283049345016,-1.9217356443405151,1.6255923509597778
1714858324404794400,7.98279443359375,0.03941475600004196,-1.4966953992843628,1.3922995328903198
1714858324414743800,7.992743896484375,0.1129179447889328,-1.0418277978897095,1.1291794776916504
1714858324424693200,8.002693359375,0.14487585425376892,-0.6583329439163208,0.8372972011566162
1714858324434642700,8.012642578125,0.1459411233663559,-0.33129698038101196,0.52837073802948
1714858324444592000,8.022592041015624,0.1416800618171692,-0.02876211889088154,0.245010644197464
1714858324454541600,8.03254150390625,0.12783163785934448,0.23222747445106506,0.04793686419725418
1714858324464491000,8.042490966796874,0.08735162019729614,0.41119176149368286,-0.04900212585926056
1714858324474440400,8.0524404296875,0.026631591841578484,0.4388886094093323,-0.06924213469028473
1714858324484390000,8.062389892578125,-0.026631591841578484,0.32810118794441223,-0.026631591841578484
1714858324494339300,8.07233935546875,-0.07776424288749695,0.14381058514118195,0.05965476483106613
1714858324504288800,8.082288818359375,-0.12783163785934448,-0.07137266546487808,0.1502021700143814
1714858324514238200,8.09223828125,-0.17789903283119202,-0.2300969511270523,0.21411798894405365
1714858324524187600,8.102187744140625,-0.2066611498594284,-0.28868645429611206,0.25246748328208923
1714858324534137000,8.11213720703125,-0.20879167318344116,-0.26631590723991394,0.2577938139438629
1714858324544086300,8.122086181640626,-0.17576849460601807,-0.21092219650745392,0.23222747445106506
1714858324554035700,8.13203564453125,-0.10865689069032669,-0.12783163785934448,0.18748639523983002
1714858324563985200,8.141985107421876,-0.02769685536623001,-0.026631591841578484,0.11824426054954529
1714858324573934600,8.1519345703125,0.050067391246557236,0.004261054564267397,0.025566328316926956
1714858324583884000,8.161884033203124,0.10120004415512085,-0.006391582079231739,-0.08735162019729614
1714858324593833500,8.17183349609375,0.12144005298614502,0.01597895473241806,-0.20985694229602814
1714858324603783000,8.181782958984375,0.12037479132413864,0.050067391246557236,-0.3419496417045593
1714858324613732400,8.191732421875,0.10652636736631393,0.009587372653186321,-0.4857602119445801
1714858324623681800,8.201681884765625,0.08841688185930252,-0.13954953849315643,-0.6498108506202698
1714858324633631200,8.21163134765625,0.07243792712688446,-0.32810118794441223,-0.8341014385223389
1714858324643580700,8.22158056640625,0.05539371073246002,-0.5049349665641785,-1.0205225944519043
1714858324653530000,8.231530029296875,0.014913691207766533,-0.6551371216773987,-1.2112047672271729
1714858324663479600,8.2414794921875,-0.06817687302827835,-0.7701855897903442,-1.416800618171692
1714858324673429000,8.251428955078126,-0.15872427821159363,-0.8905603885650635,-1.6724638938903809
1714858324683378400,8.26137841796875,-0.1981390416622162,-1.135571002960205,-2.019739866256714
1714858324693328000,8.271327880859374,-0.13741901516914368,-1.5062828063964844,-2.4522368907928467
1714858324703277300,8.28127734375,0.07350318878889084,-1.743836522102356,-2.851710796356201
1714858324713226800,8.291226806640625,0.4197138845920563,-1.7299880981445312,-3.0445234775543213
1714858324723176200,8.30117626953125,0.8575372099876404,-1.2815121412277222,-3.091395139694214
1714858324733125600,8.311125732421875,1.2005521059036255,-0.8415582776069641,-3.0988519191741943
1714858324743074800,8.32107470703125,1.1792469024658203,-0.8777772188186646,-3.061567783355713
1714858324753024300,8.331024169921875,0.7637940049171448,-1.282577395439148,-2.908169746398926
1714858324762973700,8.3409736328125,0.3994738757610321,-1.2719247341156006,-2.6205484867095947
1714858324772923100,8.350923095703125,0.253532737493515,-0.8426235318183899,-2.292447328567505
1714858324782872600,8.36087255859375,0.1597895473241806,-0.3962780833244324,-1.9728682041168213
1714858324792822000,8.370822021484376,0.12783163785934448,0.07882951200008392,-1.7257270812988281
1714858324802771500,8.380771484375,0.16831165552139282,0.7265098094940186,-1.5542196035385132
1714858324812721000,8.390720947265624,0.2673811614513397,1.2463585138320923,-1.3954954147338867
1714858324822670300,8.40067041015625,0.33129698038101196,1.568068027496338,-1.2271836996078491
1714858324832619800,8.410619873046874,0.34940648078918457,1.5467628240585327,-1.1377015113830566
1714858324842569200,8.4205693359375,0.33555805683135986,1.2484890222549438,-1.193095326423645
1714858324852518700,8.4305185546875,0.24714116752147675,0.8788425326347351,-1.3102742433547974
1714858324862468000,8.440468017578125,0.0990695208311081,0.5219792127609253,-1.4082785844802856
1714858324872417500,8.45041748046875,-0.10972215235233307,0.4410191476345062,-1.441301703453064
1714858324882367000,8.460366943359375,-0.377103328704834,0.7105308771133423,-1.3635374307632446
1714858324892316400,8.47031640625,-0.6540718674659729,1.0929604768753052,-1.2144005298614502
1714858324902265900,8.480265869140625,-0.9406278133392334,1.2932300567626953,-1.0365015268325806
1714858324912215300,8.49021533203125,-1.2303794622421265,1.1962910890579224,-0.8096003532409668
1714858324922164700,8.500164794921876,-1.4871079921722412,0.8649940490722656,-0.40586546063423157
1714858324932114200,8.5101142578125,-1.6692681312561035,0.43569281697273254,0.1267663687467575
1714858324942063400,8.5200634765625,-1.7970997095108032,0.10972215235233307,0.6167876720428467
1714858324952012800,8.5300126953125,-1.9014955759048462,-0.2620548605918884,1.0737857818603516
1714858324961962200,8.539962158203124,-1.9419755935668945,-0.6072002649307251,1.4860427379608154
1714858324971911700,8.54991162109375,-1.8737987279891968,-0.5336970686912537,1.8343839645385742
1714858324981861000,8.559861083984375,-1.684181809425354,-0.4037349224090576,2.261554718017578
1714858324991810600,8.569810546875,-1.3709943294525146,-0.22690115869045258,2.658898115158081
1714858325001760000,8.579760009765625,-0.9928256869316101,-0.2727074921131134,2.7494454383850098
1714858325011709400,8.58970947265625,-0.6540718674659729,-0.4090612530708313,2.485260009765625
1714858325021659000,8.599658935546875,-0.4037349224090576,-0.1033305749297142,2.0122830867767334
1714858325031608300,8.6096083984375,-0.2727074921131134,0.8032087683677673,1.3603416681289673
1714858325041557800,8.619557861328126,-0.06817687302827835,1.8993650674819946,0.942758321762085
1714858325051507200,8.629507080078126,0.22370536625385284,2.9582371711730957,0.8436887860298157
1714858325061456600,8.63945654296875,0.5464802384376526,3.8775596618652344,0.8969519734382629
1714858325071406000,8.649406005859374,0.8042740225791931,4.511391639709473,0.9917604327201843
1714858325081355500,8.65935546875,0.9225183129310608,4.501804351806641,1.2783163785934448
1714858325091305000,8.669304931640625,0.8639287948608398,3.045588731765747,1.8567545413970947
1714858325101254400,8.67925439453125,0.6018739342689514,-0.1597895473241806,2.6876602172851562
1714858325111203800,8.689203857421875,0.18216007947921753,-2.7505106925964355,3.5483932495117188
1714858325121153300,8.6991533203125,-0.20133483409881592,-3.1830077171325684,4.097003936767578
1714858325131102700,8.709102783203125,-0.40160438418388367,-2.0900473594665527,4.251467227935791
1714858325141052000,8.719052001953125,-0.433562308549881,-0.9704551696777344,4.2589240074157715
1714858325151001300,8.72900146484375,-0.33129698038101196,0.08096003532409668,4.063980579376221
1714858325160950800,8.73895068359375,-0.2684464454650879,0.8820382952690125,3.5835468769073486
1714858325170900200,8.748900146484376,-0.36858120560646057,1.0237183570861816,2.917757034301758
1714858325180849700,8.758849609375,-0.5475454926490784,0.6540718674659729,2.2487714290618896
1714858325190799000,8.768799072265624,-0.6551371216773987,0.26418536901474,1.671398639678955
1714858325200748500,8.77874853515625,-0.632766604423523,0.021305272355675697,1.1664637327194214
1714858325210698000,8.788697998046874,-0.4857602119445801,0.0010652636410668492,0.665789783000946
1714858325220647400,8.7986474609375,-0.24820642173290253,0.06285055726766586,0.15446323156356812
1714858325230596900,8.808596923828125,-0.004261054564267397,-0.05965476483106613,-0.35047173500061035
1714858325240546300,8.81854638671875,0.16405059397220612,-0.36858120560646057,-0.8309056162834167
1714858325250495700,8.828495849609375,0.26525065302848816,-0.7467498183250427,-1.2580763101577759
1714858325260445200,8.838445068359375,0.3579285740852356,-1.0524804592132568,-1.5787206888198853
1714858325270394600,8.84839453125,0.4506065249443054,-1.2069437503814697,-1.7353144884109497
1714858325280344000,8.858343994140625,0.52837073802948,-1.1451584100723267,-1.7001607418060303
1714858325290293500,8.86829345703125,0.5560676455497742,-0.7233139872550964,-1.3954954147338867
1714858325300243000,8.878242919921876,0.5432844758033752,0.05752423778176308,-0.9725856781005859
1714858325310192400,8.8881923828125,0.49215179681777954,0.9139962196350098,-0.9267793893814087
1714858325320141800,8.898141845703124,0.3142527639865875,1.6106786727905273,-1.1004173755645752
1714858325330091000,8.908091064453124,0.0564589723944664,1.838645100593567,-1.3709943294525146
1714858325340040400,8.91804052734375,-0.1970737725496292,1.6554197072982788,-1.6085480451583862
1714858325349990000,8.927989990234375,-0.3962780833244324,1.312404751777649,-1.6980302333831787
1714858325359939300,8.937939208984375,-0.5315665602684021,1.0439584255218506,-1.6117439270019531
1714858325369888800,8.947888671875,-0.5795034170150757,0.7893603444099426,-1.4572806358337402
1714858325379838200,8.957838134765625,-0.4889560043811798,0.44421494007110596,-1.2559458017349243
1714858325389787600,8.96778759765625,-0.22796641290187836,0.19920429587364197,-1.0631331205368042
1714858325399737000,8.977737060546875,0.07350318878889084,0.23329274356365204,-0.9161267280578613
1714858325409686500,8.9876865234375,0.25246748328208923,0.4271707236766815,-0.8234487771987915
1714858325419636000,8.997635986328126,0.3163833022117615,0.6636592745780945,-0.7552719116210938
1714858325429585400,9.00758544921875,0.2908169627189636,0.912930965423584,-0.6253097653388977
1714858325439534800,9.017534912109374,0.2205095738172531,1.0705899000167847,-0.4623244106769562
1714858325449484300,9.027484375,0.15126743912696838,1.1440931558609009,-0.31744855642318726
1714858325459433700,9.037433837890624,0.07563371956348419,1.1078741550445557,-0.19387798011302948
1714858325469383200,9.047383056640625,-0.005326318088918924,0.8916256427764893,-0.11930952966213226
1714858325479332600,9.05733251953125,-0.010652636177837849,0.6721813678741455,0.0330231711268425
1714858325489282000,9.067281982421875,0.017044218257069588,0.5294360518455505,0.3195790946483612
1714858325499231500,9.0772314453125,-0.009587372653186321,0.21837905049324036,0.8181225061416626
1714858325509181000,9.087180908203125,-0.046871598809957504,-0.2300969511270523,1.1643331050872803
1714858325519130400,9.09713037109375,0.0074568456038832664,-0.36432015895843506,1.3635374307632446
1714858325529079800,9.107079833984375,0.18535587191581726,-0.25566327571868896,1.4263880252838135
1714858325539029200,9.117029296875,0.38349491357803345,-0.15126743912696838,1.4082785844802856
1714858325548979000,9.12697900390625,0.5113265514373779,-0.10120004415512085,1.3283838033676147
1714858325558928400,9.136928466796874,0.5305013060569763,-0.18216007947921753,1.1717900037765503
1714858325568877800,9.1468779296875,0.47830337285995483,-0.48256441950798035,1.02158784866333
1714858325578827300,9.1568271484375,0.4474107325077057,-0.854341447353363,0.9747162461280823
1714858325588776700,9.166776611328125,0.4388886094093323,-1.0673941373825073,1.0578068494796753
1714858325598726100,9.17672607421875,0.4623244106769562,-1.0066741704940796,1.2303794622421265
1714858325608675800,9.18667578125,0.4942823350429535,-0.7318361401557922,1.3997564315795898
1714858325618625300,9.196625244140625,0.5134570598602295,-0.4474107325077057,1.5073480606079102
1714858325628574700,9.20657470703125,0.5102612972259521,-0.26098960638046265,1.5339796543121338
1714858325638524200,9.216524169921875,0.45806336402893066,-0.1981390416622162,1.4594111442565918
1714858325648473600,9.2264736328125,0.3962780833244324,-0.32597067952156067,1.2868385314941406
1714858325658423000,9.236423095703126,0.4090612530708313,-0.6050697565078735,1.081242561340332
1714858325668372500,9.24637255859375,0.5155876278877258,-0.7552719116210938,0.8596677780151367
1714858325678322200,9.256322265625,0.6157223582267761,-0.6998782157897949,0.670050859451294
1714858325688271600,9.266271728515624,0.6306360960006714,-0.6849645376205444,0.5965476632118225
1714858325698221000,9.276220947265625,0.5869602560997009,-0.7350319027900696,0.6103960871696472
1714858325708170500,9.28617041015625,0.5603286623954773,-0.6711161136627197,0.611461341381073
1714858325718120000,9.296119873046875,0.574177086353302,-0.47191178798675537,0.5603286623954773
1714858325728069400,9.3060693359375,0.5795034170150757,-0.2961432933807373,0.45486757159233093
1714858325738019000,9.31601904296875,0.5411539077758789,-0.17257271707057953,0.309991717338562
1714858325747968500,9.325968505859375,0.4623244106769562,-0.06711161136627197,0.13315795361995697
1714858325757918000,9.33591796875,0.35899385809898376,-0.03621896356344223,-0.05539371073246002
1714858325767867400,9.345867431640626,0.24074958264827728,-0.15659375488758087,-0.2024000883102417
1714858325777816800,9.35581689453125,0.15446323156356812,-0.2972085475921631,-0.2503369450569153
1714858325787766300,9.365766357421874,0.11611373722553253,-0.20879167318344116,-0.2077264040708542
1714858325797715700,9.3757158203125,0.06924213469028473,0.026631591841578484,-0.122505322098732
1714858325807665200,9.3856650390625,-0.013848427683115005,0.245010644197464,-0.05113265663385391
1714858325817614600,9.395614501953125,-0.10759162902832031,0.39734333753585815,-0.05326318368315697
1714858325827564000,9.40556396484375,-0.20026956498622894,0.48149916529655457,-0.15765902400016785
1714858325837513500,9.415513427734375,-0.24074958264827728,0.4751075804233551,-0.3440801501274109
1714858325847463000,9.425462890625,-0.18748639523983002,0.3898864984512329,-0.5432844758033752
1714858325857412400,9.435412353515625,-0.06072002649307251,0.2727074921131134,-0.6540718674659729
1714858325867361800,9.44536181640625,0.07882951200008392,0.2300969511270523,-0.6519413590431213
1714858325877311200,9.455311279296875,0.12570111453533173,0.19600850343704224,-0.5709813237190247
1714858325887260700,9.4652607421875,0.04793686419725418,0.1033305749297142,-0.4569981098175049
1714858325897210000,9.475210205078126,-0.07243792712688446,0.018109481781721115,-0.3579285740852356
1714858325907159300,9.4851591796875,-0.16085481643676758,-0.023435799404978752,-0.301469624042511
1714858325917108700,9.495108642578124,-0.2077264040708542,-0.017044218257069588,-0.31318750977516174
1714858325927058200,9.50505810546875,-0.22690115869045258,0.030892645940184593,-0.37284228205680847
1714858325937007600,9.515007568359374,-0.20559588074684143,0.09587372839450836,-0.4388886094093323
1714858325946957000,9.52495703125,-0.11717899888753891,0.1459411233663559,-0.5113265514373779
1714858325956906500,9.534906494140625,-0.006391582079231739,0.14913691580295563,-0.5933518409729004
1714858325966856000,9.54485595703125,0.10226531326770782,0.1693769246339798,-0.6583329439163208
1714858325976805400,9.554805419921875,0.18748639523983002,0.2620548605918884,-0.687095046043396
1714858325986754800,9.5647548828125,0.2162485122680664,0.37923386693000793,-0.6828339695930481
1714858325996704300,9.574704345703125,0.19174745678901672,0.42504018545150757,-0.670050859451294
1714858326006653700,9.58465380859375,0.1651158630847931,0.3621896505355835,-0.6924213767051697
1714858326016603100,9.59460302734375,0.15233269333839417,0.21837905049324036,-0.7456845641136169
1714858326026552600,9.604552490234376,0.15126743912696838,0.023435799404978752,-0.7946866750717163
1714858326036502000,9.614501953125,0.1416800618171692,-0.13422322273254395,-0.7819035053253174
1714858326046451500,9.624451416015624,0.12037479132413864,-0.1736379712820053,-0.7041392922401428
1714858326056401000,9.63440087890625,0.09587372839450836,-0.1555284857749939,-0.595482349395752
1714858326066350300,9.644350341796875,0.06285055726766586,-0.15126743912696838,-0.4836297035217285
1714858326076299800,9.6542998046875,0.02876211889088154,-0.1129179447889328,-0.3866907060146332
1714858326086249200,9.664249267578125,-0.01597895473241806,-0.04474107176065445,-0.2972085475921631
1714858326096198700,9.67419873046875,-0.05113265663385391,0.0021305272821336985,-0.2215748429298401
1714858326106147800,9.68414794921875,-0.07456845790147781,-0.004261054564267397,-0.19600850343704224
1714858326116097300,9.69409716796875,-0.06072002649307251,-0.017044218257069588,-0.22264009714126587
1714858326126046700,9.704046630859375,0.013848427683115005,-0.0021305272821336985,-0.2684464454650879
1714858326135996200,9.71399609375,0.07776424288749695,0.041545283049345016,-0.3195790946483612
1714858326145945600,9.723945556640626,0.1033305749297142,0.11078742146492004,-0.3579285740852356
1714858326155895000,9.73389501953125,0.08841688185930252,0.15446323156356812,-0.37390753626823425
1714858326165844500,9.743844482421874,0.05113265663385391,0.13848426938056946,-0.3568633198738098
1714858326175794000,9.7537939453125,0.022370535880327225,0.061785291880369186,-0.30253487825393677
1714858326185743400,9.763743408203124,0.0031957910396158695,-0.038349490612745285,-0.22690115869045258
1714858326195692800,9.77369287109375,-0.012783164158463478,-0.11824426054954529,-0.13954953849315643
1714858326205642200,9.783642333984375,-0.014913691207766533,-0.17470324039459229,-0.045806337147951126
1714858326215591700,9.793591796875,0.006391582079231739,-0.18642114102840424,0.054328445345163345
1714858326225541000,9.803541015625,0.03941475600004196,-0.10972215235233307,0.14913691580295563
1714858326235490600,9.813490478515625,0.061785291880369186,0.006391582079231739,0.22796641290187836
1714858326245440000,9.82343994140625,0.06817687302827835,0.1033305749297142,0.26631590723991394
1714858326255389400,9.833389404296875,0.0564589723944664,0.14274533092975616,0.24714116752147675
1714858326265339000,9.8433388671875,0.04474107176065445,0.13528847694396973,0.19494324922561646
1714858326275288300,9.853288330078126,0.05219791829586029,0.12037479132413864,0.13848426938056946
1714858326285237800,9.86323779296875,0.06924213469028473,0.10439583659172058,0.08522108942270279
1714858326295187200,9.873187255859374,0.0894821435213089,0.05752423778176308,0.050067391246557236
1714858326305136400,9.883136474609374,0.11504847556352615,-0.018109481781721115,0.0330231711268425
1714858326315085800,9.8930859375,0.13848426938056946,-0.09480846673250198,0.017044218257069588
1714858326325035300,9.90303515625,0.15446323156356812,-0.15659375488758087,-0.017044218257069588
1714858326334984700,9.912984619140625,0.16298533976078033,-0.17044217884540558,-0.08841688185930252
1714858326344934100,9.92293408203125,0.16085481643676758,-0.1129179447889328,-0.21411798894405365
1714858326354883600,9.932883544921875,0.1363537460565567,-0.022370535880327225,-0.37923386693000793
1714858326364833000,9.9428330078125,0.09800425171852112,0.050067391246557236,-0.5379581451416016
1714858326374782500,9.952782470703125,0.05965476483106613,0.10865689069032669,-0.6732466220855713
1714858326384732000,9.96273193359375,0.045806337147951126,0.1597895473241806,-0.7882950901985168
1714858326394681300,9.972681396484376,0.058589499443769455,0.18109482526779175,-0.8777772188186646
1714858326404630800,9.982630859375,0.10226531326770782,0.14700637757778168,-0.9108003973960876
1714858326414580200,9.992580322265624,0.16298533976078033,0.07137266546487808,-0.8586025238037109
1714858326424529700,10.00252978515625,0.2077264040708542,-0.012783164158463478,-0.7190529704093933
1714858326434479000,10.01247900390625,0.2119874656200409,-0.042610544711351395,-0.52837073802948
1714858326444428500,10.022428466796875,0.15765902400016785,-0.026631591841578484,-0.33555805683135986
1714858326454378000,10.0323779296875,0.07243792712688446,-0.02769685536623001,-0.1736379712820053
1714858326464327400,10.042327392578125,-0.03195790946483612,-0.0798947736620903,-0.07243792712688446
1714858326474276900,10.05227685546875,-0.12570111453533173,-0.11078742146492004,-0.010652636177837849
1714858326484226300,10.062226318359375,-0.17683376371860504,-0.017044218257069588,0.05113265663385391
1714858326494175500,10.072175537109375,-0.20026956498622894,0.14700637757778168,0.12037479132413864
1714858326504125000,10.082125,-0.2077264040708542,0.26098960638046265,0.18002955615520477
1714858326514074400,10.092074462890626,-0.20133483409881592,0.2876211702823639,0.2215748429298401
1714858326524023800,10.10202392578125,-0.17683376371860504,0.2929475009441376,0.2577938139438629
1714858326533973200,10.11197314453125,-0.13315795361995697,0.2961432933807373,0.2833601236343384
1714858326543922700,10.121922607421874,-0.0798947736620903,0.25566327571868896,0.2833601236343384
1714858326553872100,10.1318720703125,-0.014913691207766533,0.17150744795799255,0.2631201148033142
1714858326563821600,10.141821533203125,0.058589499443769455,0.06391581892967224,0.22903168201446533
1714858326573771000,10.15177099609375,0.11611373722553253,-0.026631591841578484,0.14807164669036865
1714858326583720400,10.161720458984375,0.16298533976078033,-0.06072002649307251,0.04048001766204834
1714858326593670000,10.171669921875,0.18429060280323029,-0.05965476483106613,-0.05326318368315697
1714858326603619300,10.181619384765625,0.17044217884540558,-0.019174745306372643,-0.10226531326770782
1714858326613568800,10.19156884765625,0.14700637757778168,0.04900212585926056,-0.10546109825372696
1714858326623518200,10.201518310546875,0.13528847694396973,0.09267793595790863,-0.07563371956348419
1714858326633467600,10.211467529296876,0.15446323156356812,0.11930952966213226,-0.011717899702489376
1714858326643417000,10.2214169921875,0.1970737725496292,0.11504847556352615,0.07563371956348419
1714858326653366500,10.231366455078126,0.25246748328208923,0.07563371956348419,0.16298533976078033
1714858326663316000,10.24131591796875,0.30253487825393677,-0.017044218257069588,0.2311622053384781
1714858326673265400,10.251265380859374,0.3249054253101349,-0.1736379712820053,0.27590328454971313
1714858326683214800,10.26121484375,0.301469624042511,-0.3110569715499878,0.28549066185951233
1714858326693164000,10.2711640625,0.24820642173290253,-0.3760380744934082,0.2684464454650879
1714858326703113500,10.281113525390625,0.18429060280323029,-0.377103328704834,0.21518325805664062
1714858326713063000,10.29106298828125,0.11398320645093918,-0.35473278164863586,0.122505322098732
1714858326723012400,10.301012451171875,0.05326318368315697,-0.320644348859787,-0.010652636177837849
1714858326732961800,10.3109619140625,0.0010652636410668492,-0.2716422379016876,-0.17044217884540558
1714858326742911200,10.3209111328125,-0.03728422895073891,-0.19387798011302948,-0.33129698038101196
1714858326752860700,10.330860595703125,-0.054328445345163345,-0.12570111453533173,-0.46765074133872986
1714858326762810000,10.34081005859375,-0.05219791829586029,-0.09800425171852112,-0.5411539077758789
1714858326772759600,10.350759521484376,-0.04048001766204834,-0.06817687302827835,-0.5294360518455505
1714858326782709000,10.360708984375,-0.03515370190143585,-0.061785291880369186,-0.44528019428253174
1714858326792658400,10.370658447265624,-0.04900212585926056,-0.10759162902832031,-0.320644348859787
1714858326802607900,10.38060791015625,-0.08309056609869003,-0.16831165552139282,-0.1832253485918045
1714858326812557300,10.390557373046875,-0.12144005298614502,-0.19068218767642975,-0.06285055726766586
1714858326822506800,10.4005068359375,-0.15233269333839417,-0.18961693346500397,0.004261054564267397
1714858326832456200,10.410456298828125,-0.16298533976078033,-0.17150744795799255,0.013848427683115005
1714858326842405600,10.420405517578125,-0.16192007064819336,-0.12357058376073837,-0.010652636177837849
1714858326852355000,10.43035498046875,-0.1555284857749939,-0.08309056609869003,-0.04793686419725418
1714858326862304500,10.440304443359375,-0.1310274302959442,-0.05752423778176308,-0.0798947736620903
1714858326872254000,10.45025390625,-0.08309056609869003,-0.042610544711351395,-0.09374319761991501
1714858326882203400,10.460203369140626,-0.02876211889088154,-0.02876211889088154,-0.09054741263389587
1714858326892152600,10.470152587890626,0.017044218257069588,0.0021305272821336985,-0.07882951200008392
1714858326902102000,10.48010205078125,0.054328445345163345,0.041545283049345016,-0.06817687302827835
1714858326912051500,10.490051513671874,0.08202529698610306,0.06391581892967224,-0.06924213469028473
1714858326922001000,10.5000009765625,0.08841688185930252,0.03728422895073891,-0.06498108059167862
1714858326931950300,10.509950439453124,0.07456845790147781,-0.0031957910396158695,-0.046871598809957504
1714858326941899800,10.519899658203125,0.04367581009864807,-0.0330231711268425,-0.018109481781721115
1714858326951849200,10.52984912109375,0.006391582079231739,-0.050067391246557236,0.010652636177837849
1714858326961798700,10.539798583984375,-0.02876211889088154,-0.06072002649307251,0.02876211889088154
1714858326971748000,10.549748046875,-0.05219791829586029,-0.0564589723944664,0.038349490612745285
1714858326981697500,10.559697509765625,-0.061785291880369186,-0.045806337147951126,0.03728422895073891
1714858326991647000,10.56964697265625,-0.04900212585926056,-0.03515370190143585,0.03515370190143585
1714858327001596400,10.579596435546875,-0.008522109128534794,-0.021305272355675697,0.045806337147951126
1714858327011545900,10.5895458984375,0.041545283049345016,-0.01597895473241806,0.061785291880369186
1714858327021495300,10.599495361328126,0.08522108942270279,-0.03941475600004196,0.08309056609869003
1714858327031444700,10.60944482421875,0.12463584542274475,-0.07882951200008392,0.11185268312692642
1714858327041394200,10.619394287109374,0.14913691580295563,-0.11504847556352615,0.14487585425376892
1714858327051343600,10.629343505859374,0.15765902400016785,-0.16298533976078033,0.17789903283119202
1714858327061293000,10.63929296875,0.15446323156356812,-0.22903168201446533,0.20453062653541565
1714858327071242500,10.649242431640625,0.1310274302959442,-0.3004043400287628,0.2162485122680664
1714858327081192000,10.65919189453125,0.09267793595790863,-0.3675159513950348,0.20985694229602814
1714858327091141000,10.66914111328125,0.05752423778176308,-0.42504018545150757,0.18961693346500397
1714858327101090600,10.679090576171875,0.04048001766204834,-0.42930126190185547,0.16618113219738007
1714858327111040000,10.6890400390625,0.038349490612745285,-0.37284228205680847,0.13741901516914368
1714858327120989400,10.698989501953125,0.05113265663385391,-0.2918822467327118,0.10226531326770782
1714858327130939000,10.70893896484375,0.07243792712688446,-0.20133483409881592,0.06391581892967224
1714858327140888300,10.718888427734376,0.09693899005651474,-0.12996216118335724,0.018109481781721115
1714858327150837800,10.728837646484376,0.12037479132413864,-0.10652636736631393,-0.045806337147951126
1714858327160787200,10.738787109375,0.15659375488758087,-0.11504847556352615,-0.11398320645093918
1714858327170736600,10.748736572265624,0.20133483409881592,-0.13422322273254395,-0.1693769246339798
1714858327180686000,10.75868603515625,0.2503369450569153,-0.18216007947921753,-0.2205095738172531
1714858327190635500,10.768635498046875,0.30466538667678833,-0.27590328454971313,-0.27590328454971313
1714858327200585000,10.7785849609375,0.3611243665218353,-0.377103328704834,-0.3110569715499878
1714858327210534400,10.788534423828125,0.3909517526626587,-0.42610546946525574,-0.3067959249019623
1714858327220483800,10.79848388671875,0.37497279047966003,-0.4474107325077057,-0.28975170850753784
1714858327230433300,10.808433349609375,0.33236226439476013,-0.49215179681777954,-0.26951169967651367
1714858327240382700,10.8183828125,0.2822948694229126,-0.52837073802948,-0.24607589840888977
1714858327250332200,10.828332275390625,0.2492716908454895,-0.4932170510292053,-0.21518325805664062
1714858327260281600,10.838281494140626,0.25672852993011475,-0.4282359778881073,-0.17150744795799255
1714858327270231000,10.84823095703125,0.2950780391693115,-0.3398191034793854,-0.10652636736631393
1714858327280180500,10.858180419921876,0.34514543414115906,-0.1693769246339798,-0.008522109128534794
1714858327290129700,10.868129638671874,0.3813643753528595,0.045806337147951126,0.10759162902832031
1714858327300079000,10.8780791015625,0.38882121443748474,0.23648852109909058,0.2024000883102417
1714858327310028500,10.888028564453125,0.3717769980430603,0.3398191034793854,0.25566327571868896
1714858327319978000,10.89797802734375,0.3483411967754364,0.38242965936660767,0.2727074921131134
1714858327329927400,10.907927490234375,0.3195790946483612,0.45380231738090515,0.2812296152114868
1714858327339876900,10.917876953125,0.2716422379016876,0.5848297476768494,0.3004043400287628
1714858327349826300,10.927826416015625,0.19174745678901672,0.6210486888885498,0.2865559160709381
1714858327359775700,10.937775634765625,0.09480846673250198,0.3067959249019623,0.1651158630847931
1714858327369725200,10.94772509765625,-0.02450106292963028,0.2545980215072632,0.11611373722553253
1714858327379674600,10.957674560546875,-0.08309056609869003,0.4751075804233551,0.18748639523983002
1714858327389624000,10.9676240234375,-0.05752423778176308,0.6434192657470703,0.30360013246536255
1714858327399573500,10.977573486328126,0.006391582079231739,0.6998782157897949,0.4186486005783081
1714858327409523000,10.98752294921875,0.09587372839450836,0.7126613855361938,0.5475454926490784
1714858327419472400,10.997472412109374,0.17683376371860504,0.8032087683677673,0.6732466220855713
1714858327429421800,11.007421875,0.17150744795799255,0.9491499066352844,0.7648593187332153
1714858327439371300,11.017371337890625,0.019174745306372643,0.9992172718048096,0.8287751078605652
1714858327449320700,11.02732080078125,-0.245010644197464,0.8862993717193604,0.8905603885650635
1714858327459270100,11.037270263671875,-0.53582763671875,0.7446193099021912,0.9395625591278076
1714858327469219600,11.047219482421875,-0.7861645817756653,0.6061350107192993,0.9757815003395081
1714858327479169000,11.0571689453125,-0.9097351431846619,0.45912861824035645,1.0407625436782837
1714858327489118200,11.0671181640625,-0.8713856339454651,0.3398191034793854,1.118526816368103
1714858327499067600,11.077067626953125,-0.7755119204521179,0.28975170850753784,1.1813774108886719
1714858327509017000,11.08701708984375,-0.7233139872550964,0.24714116752147675,1.1792469024658203
1714858327518966500,11.096966552734376,-0.6711161136627197,0.15446323156356812,1.0375667810440063
1714858327528916000,11.106916015625,-0.5677855014801025,0.05752423778176308,0.7680550813674927
1714858327538865400,11.116865478515624,-0.3994738757610321,0.11717899888753891,0.5475454926490784
1714858327548814800,11.12681494140625,-0.25566327571868896,0.2908169627189636,0.38882121443748474
1714858327558764300,11.136764404296875,-0.245010644197464,0.4005391299724579,0.22690115869045258
1714858327568713700,11.146713623046875,-0.3909517526626587,0.40693071484565735,0.0564589723944664
1714858327578663200,11.1566630859375,-0.6167876720428467,0.3440801501274109,-0.1033305749297142
1714858327588612600,11.166612548828125,-0.8309056162834167,0.18216007947921753,-0.18748639523983002
1714858327598562000,11.17656201171875,-1.0056089162826538,-0.014913691207766533,-0.13209268450737
1714858327608511500,11.186511474609375,-1.185638427734375,-0.12357058376073837,0.005326318088918924
1714858327618461000,11.1964609375,-1.386973261833191,-0.16724638640880585,0.10865689069032669
1714858327628410400,11.206410400390626,-1.5648722648620605,-0.2162485122680664,0.10120004415512085
1714858327638359800,11.21635986328125,-1.6309186220169067,-0.11930952966213226,-0.025566328316926956
1714858327648309200,11.226309326171876,-1.4253227710723877,0.2396843135356903,-0.35047173500061035
1714858327658258700,11.2362587890625,-0.8596677780151367,0.7829687595367432,-0.8383625149726868
1714858327668208000,11.2462080078125,-0.11504847556352615,1.381646990776062,-1.178181529045105
1714858327678157300,11.2561572265625,0.5571328997612,1.7694028615951538,-1.3134701251983643
1714858327688106800,11.266106689453125,1.0301098823547363,1.8077523708343506,-1.368863821029663
1714858327698056200,11.27605615234375,1.2165310382843018,1.5936343669891357,-1.3954954147338867
1714858327708005600,11.286005615234375,1.0972214937210083,1.2740553617477417,-1.3720595836639404
1714858327717955000,11.295955078125,0.7808382511138916,0.854341447353363,-1.2463585138320923
1714858327727904500,11.305904541015625,0.4410191476345062,0.3866907060146332,-0.988564670085907
1714858327737854000,11.31585400390625,0.13528847694396973,0.15765902400016785,-0.6253097653388977
1714858327747803400,11.325803466796875,-0.1597895473241806,0.24714116752147675,-0.19920429587364197
1714858327757752800,11.3357529296875,-0.4324970245361328,0.35047173500061035,0.2354232668876648
1714858327767702300,11.345702392578126,-0.5858950018882751,0.3302317261695862,0.595482349395752
1714858327777651700,11.355651611328126,-0.5816339254379272,0.12889690697193146,0.8223835229873657
1714858327787601200,11.36560107421875,-0.5219792127609253,-0.24074958264827728,0.8607330322265625
1714858327797550600,11.375550537109374,-0.4751075804233551,-0.6519413590431213,0.7350319027900696
1714858327807500000,11.3855,-0.40586546063423157,-1.039697289466858,0.602939248085022
1714858327817449500,11.395449462890625,-0.27483803033828735,-1.30707848072052,0.5251749753952026
1714858327827399000,11.40539892578125,-0.06072002649307251,-1.5542196035385132,0.47297704219818115
1714858327837348400,11.415348388671875,0.0894821435213089,-1.7576850652694702,0.4474107325077057
1714858327847297800,11.4252978515625,0.06285055726766586,-1.612809181213379,0.39308229088783264
1714858327857247200,11.435247314453125,-0.03515370190143585,-1.1377015113830566,0.5368928909301758
1714858327867196700,11.44519677734375,-0.17470324039459229,-0.754206657409668,0.7808382511138916
1714858327877145900,11.455145751953125,-0.3387538492679596,-0.49641284346580505,0.8106656074523926
1714858327887095300,11.46509521484375,-0.43995389342308044,-0.42184439301490784,0.7701855897903442
1714858327897044700,11.475044677734376,-0.442084401845932,-0.3536675274372101,0.6924213767051697
1714858327906994200,11.484994140625,-0.3472759425640106,-0.23329274356365204,0.552871823310852
1714858327916943600,11.494943603515624,-0.18642114102840424,-0.06817687302827835,0.40799596905708313
1714858327926893000,11.50489306640625,0.0021305272821336985,0.11611373722553253,0.31212225556373596
1714858327936842500,11.514842529296875,0.1502021700143814,0.28975170850753784,0.22264009714126587
1714858327946792000,11.5247919921875,0.19920429587364197,0.36432015895843506,0.09693899005651474
1714858327956741400,11.534741455078125,0.1928127259016037,0.5326318144798279,-0.10972215235233307
1714858327966690800,11.54469091796875,0.17470324039459229,0.6072002649307251,-0.3067959249019623
1714858327976640300,11.55464013671875,0.16405059397220612,0.018109481781721115,-0.29401275515556335
1714858327986589700,11.564589599609375,0.12570111453533173,-0.4410191476345062,-0.2024000883102417
1714858327996539100,11.5745390625,0.05752423778176308,-0.8649940490722656,-0.10865689069032669
1714858328006488600,11.584488525390626,-0.005326318088918924,-1.282577395439148,0.0031957910396158695
1714858328016438000,11.59443798828125,-0.03621896356344223,-1.4572806358337402,0.12357058376073837
1714858328026387500,11.604387451171876,-0.050067391246557236,-1.3731248378753662,0.1693769246339798
1714858328036337000,11.6143369140625,-0.08628635853528976,-1.269794225692749,0.12889690697193146
1714858328046286300,11.624286376953124,-0.16724638640880585,-1.210139513015747,0.04474107176065445
1714858328056235800,11.63423583984375,-0.23435799777507782,-1.2133352756500244,-0.07776424288749695
1714858328066185200,11.644185302734375,-0.23648852109909058,-1.185638427734375,-0.24714116752147675
1714858328076134400,11.654134521484375,-0.18535587191581726,-1.0823078155517578,-0.4431496858596802
1714858328086083800,11.664083740234375,-0.11717899888753891,-0.9086698889732361,-0.5986781716346741
1714858328096033300,11.674033203125,-0.05326318368315697,-0.7137266397476196,-0.6636592745780945
1714858328105982700,11.683982666015625,-0.021305272355675697,-0.5784381628036499,-0.6370276808738708
1714858328115932200,11.69393212890625,-0.023435799404978752,-0.5486107468605042,-0.50706547498703
1714858328125881600,11.703881591796875,-0.03728422895073891,-0.6604634523391724,-0.320644348859787
1714858328135831000,11.7138310546875,-0.050067391246557236,-0.8117309212684631,-0.1416800618171692
1714858328145780500,11.723780517578126,-0.026631591841578484,-0.9012130498886108,0.004261054564267397
1714858328155730000,11.73372998046875,0.03515370190143585,-0.997086763381958,0.1129179447889328
1714858328165679400,11.743679443359374,0.05752423778176308,-1.0524804592132568,0.21092219650745392
1714858328175628800,11.75362890625,0.06498108059167862,-1.0695246458053589,0.27483803033828735
1714858328185578200,11.763578125,0.07776424288749695,-1.0162614583969116,0.31212225556373596
1714858328195527700,11.773527587890625,0.07776424288749695,-0.8969519734382629,0.32597067952156067
1714858328205477000,11.78347705078125,0.08309056609869003,-0.7552719116210938,0.29827383160591125
1714858328215426600,11.793426513671875,0.1129179447889328,-0.6295707821846008,0.2077264040708542
1714858328225376000,11.8033759765625,0.17150744795799255,-0.5123918056488037,0.08415582776069641
1714858328235325400,11.813325439453125,0.22264009714126587,-0.4154528081417084,-0.026631591841578484
1714858328245275000,11.82327490234375,0.2311622053384781,-0.3813643753528595,-0.0894821435213089
1714858328255224300,11.833224365234376,0.18961693346500397,-0.3621896505355835,-0.07776424288749695
1714858328265173800,11.843173828125,0.11824426054954529,-0.3621896505355835,-0.017044218257069588
1714858328275123000,11.853123046875,0.061785291880369186,-0.3856254518032074,0.046871598809957504
1714858328285072400,11.863072265625,0.041545283049345016,-0.40266966819763184,0.06498108059167862
1714858328295021800,11.873021728515624,0.04793686419725418,-0.4133222997188568,0.025566328316926956
1714858328304971300,11.88297119140625,0.06498108059167862,-0.422909677028656,-0.0330231711268425
1714858328314920700,11.892920654296875,0.06924213469028473,-0.3856254518032074,-0.06711161136627197
1714858328324870100,11.9028701171875,0.06391581892967224,-0.3110569715499878,-0.07137266546487808
1714858328334819600,11.912819580078125,0.06711161136627197,-0.25246748328208923,-0.07243792712688446
1714858328344769000,11.92276904296875,0.08202529698610306,-0.20985694229602814,-0.09267793595790863
1714858328354718500,11.932718505859375,0.09267793595790863,-0.16192007064819336,-0.1363537460565567
1714858328364668000,11.94266796875,0.08309056609869003,-0.11398320645093918,-0.20133483409881592
1714858328374617300,11.952617431640626,0.05752423778176308,-0.08841688185930252,-0.2631201148033142
1714858328384566800,11.96256689453125,0.02769685536623001,-0.10652636736631393,-0.2918822467327118
1714858328394516200,11.97251611328125,-0.005326318088918924,-0.17257271707057953,-0.2929475009441376
1714858328404465700,11.982465576171874,-0.0564589723944664,-0.2077264040708542,-0.26951169967651367
1714858328414415000,11.9924150390625,-0.13741901516914368,-0.12144005298614502,-0.21944430470466614
1714858328424364500,12.002364501953124,-0.2077264040708542,-0.019174745306372643,-0.18748639523983002
1714858328434314000,12.01231396484375,-0.20879167318344116,0.030892645940184593,-0.18642114102840424
1714858328444263400,12.022263427734375,-0.13422322273254395,0.03195790946483612,-0.2258358895778656
1714858328454212900,12.032212890625,0,0.03728422895073891,-0.2950780391693115
1714858328464162300,12.042162353515625,0.1693769246339798,0.07669898122549057,-0.3483411967754364
1714858328474111500,12.052111572265625,0.32810118794441223,0.09587372839450836,-0.3526022732257843
1714858328484061000,12.06206103515625,0.4324970245361328,0.041545283049345016,-0.2908169627189636
1714858328494010400,12.07201025390625,0.4708465337753296,-0.04793686419725418,-0.19494324922561646
1714858328503959800,12.081959716796876,0.4506065249443054,-0.10226531326770782,-0.09267793595790863
1714858328513909200,12.0919091796875,0.3856254518032074,-0.09054741263389587,0.017044218257069588
1714858328523858700,12.101858642578126,0.3238401412963867,-0.02876211889088154,0.12889690697193146
1714858328533808000,12.11180810546875,0.320644348859787,0.042610544711351395,0.17683376371860504
1714858328543757600,12.121757568359374,0.39840859174728394,0.10120004415512085,0.1406148076057434
1714858328553707000,12.13170703125,0.5091960430145264,0.13954953849315643,0.06072002649307251
1714858328563656400,12.141656494140625,0.6242445111274719,0.17470324039459229,-0.010652636177837849
1714858328573606000,12.15160595703125,0.7350319027900696,0.24607589840888977,-0.042610544711351395
1714858328583555300,12.161555419921875,0.8223835229873657,0.3707117438316345,-0.045806337147951126
1714858328593504800,12.1715048828125,0.8894951343536377,0.49108654260635376,-0.050067391246557236
1714858328603454200,12.1814541015625,0.9384972453117371,0.5667202472686768,-0.06072002649307251
1714858328613403600,12.191403564453125,0.9598025679588318,0.5464802384376526,-0.07776424288749695
1714858328623353000,12.20135302734375,0.9598025679588318,0.4048001766204834,-0.08415582776069641
1714858328633302500,12.211302490234376,0.9544762372970581,0.2077264040708542,-0.07563371956348419
1714858328643252000,12.221251953125,0.9321056604385376,0.038349490612745285,-0.045806337147951126
1714858328653201400,12.231201416015624,0.9022783041000366,-0.014913691207766533,0.021305272355675697
1714858328663150600,12.241150634765624,0.8958867192268372,0.01597895473241806,0.08522108942270279
1714858328673100000,12.25110009765625,0.9086698889732361,0.09161267429590225,0.12037479132413864
1714858328683049500,12.261049560546875,0.9076046347618103,0.18642114102840424,0.12570111453533173
1714858328692999000,12.2709990234375,0.8788425326347351,0.25566327571868896,0.10759162902832031
1714858328702948400,12.2809482421875,0.8191877603530884,0.26525065302848816,0.0990695208311081
1714858328712897800,12.290897705078125,0.7211834788322449,0.19068218767642975,0.12570111453533173
1714858328722847200,12.30084716796875,0.6018739342689514,0.09267793595790863,0.18642114102840424
1714858328732796700,12.310796630859375,0.4708465337753296,-0.008522109128534794,0.24714116752147675
1714858328742746000,12.32074609375,0.3387538492679596,-0.10013478249311447,0.25672852993011475
1714858328752695600,12.330695556640626,0.2162485122680664,-0.12144005298614502,0.2162485122680664
1714858328762645000,12.34064501953125,0.13315795361995697,-0.07243792712688446,0.15339796245098114
1714858328772594400,12.350594482421876,0.09374319761991501,0.013848427683115005,0.08522108942270279
1714858328782544000,12.3605439453125,0.08415582776069641,0.1129179447889328,0.017044218257069588
1714858328792493300,12.370493408203124,0.09267793595790863,0.19920429587364197,-0.041545283049345016
1714858328802442800,12.38044287109375,0.10546109825372696,0.26525065302848816,-0.08841688185930252
1714858328812392200,12.39039208984375,0.09587372839450836,0.3195790946483612,-0.11398320645093918
1714858328822341600,12.400341552734375,0.054328445345163345,0.3526022732257843,-0.10120004415512085
