time,seconds_elapsed,z,y,x
1714858316554651100,0.132651123046875,8.572439193725586,4.313753128051758,-1.256955862045288
1714858316564597800,0.14259765625,8.036137580871582,4.241926670074463,-1.4101848602294922
1714858316574545400,0.15254541015625,7.657854080200195,4.213196277618408,-1.5825673341751099
1714858316584494000,0.162494140625,7.581239700317383,4.232349872589111,-1.6879122257232666
1714858316594444300,0.1724443359375,7.983465671539307,4.22277307510376,-1.6927006244659424
1714858316604395500,0.1823955078125,8.677783966064453,4.1413702964782715,-1.4724340438842773
1714858316614347500,0.192347412109375,9.300276756286621,4.127005100250244,-1.1755530834197998
1714858316624300500,0.202300537109375,9.654618263244629,4.170100688934326,-1.0654197931289673
1714858316634254300,0.21225439453125,9.63067626953125,4.1844658851623535,-1.0749965906143188
1714858316644208400,0.22220849609375,9.281123161315918,4.198831081390381,-1.1085153818130493
1714858316654163000,0.232162841796875,8.744821548461914,4.1844658851623535,-1.2186486721038818
1714858316664117500,0.242117431640625,8.13669490814209,4.13179349899292,-1.3623007535934448
1714858316674069000,0.252069091796875,7.648277282714844,4.107851505279541,-1.601720929145813
1714858316684018400,0.262018310546875,7.475894927978516,4.093486309051514,-1.7693150043487549
1714858316693968000,0.2719677734375,7.796717643737793,4.112639904022217,-1.6687586307525635
1714858316703917300,0.281917236328125,8.639476776123047,4.093486309051514,-1.5490485429763794
1714858316713866800,0.29186669921875,9.400833129882812,3.9929299354553223,-1.45806884765625
1714858316723816000,0.30181591796875,9.582792282104492,3.8827965259552,-1.3527239561080933
1714858316733765400,0.311765380859375,9.372102737426758,3.911526918411255,-1.194706678390503
1714858316743714800,0.32171484375,9.089587211608887,4.036025524139404,-1.1755530834197998
1714858316753664300,0.331664306640625,8.768763542175293,4.122216701507568,-1.2186486721038818
1714858316763613400,0.341613525390625,8.428787231445312,4.0982747077941895,-1.314416766166687
1714858316773563000,0.35156298828125,8.232462882995605,4.055179119110107,-1.3670891523361206
1714858316783512300,0.36151220703125,8.175002098083496,4.016871929168701,-1.400607943534851
1714858316793461800,0.371461669921875,8.256404876708984,3.9929299354553223,-1.45806884765625
1714858316803411000,0.381410888671875,8.562862396240234,4.055179119110107,-1.4389152526855469
1714858316813360400,0.3913603515625,8.960299491882324,4.174889087677002,-1.2952631711959839
1714858316823309800,0.401309814453125,9.261969566345215,4.208407878875732,-1.1228805780410767
1714858316833259300,0.41125927734375,9.410409927368164,4.189254283905029,-1.0414776802062988
1714858316843208400,0.42120849609375,9.285911560058594,4.093486309051514,-1.0845733880996704
1714858316853158000,0.431157958984375,9.046490669250488,4.103063106536865,-1.0127472877502441
1714858316863107300,0.441107421875,9.07522201538086,4.25629186630249,-0.9313444495201111
1714858316873056800,0.451056884765625,9.252392768859863,4.270657062530518,-0.9888052940368652
1714858316883006000,0.461005859375,9.362525939941406,4.088697910308838,-1.1563993692398071
1714858316892955400,0.470955322265625,9.348160743713379,3.9258923530578613,-1.280897855758667
1714858316902904800,0.48090478515625,9.170989990234375,3.911526918411255,-1.3287819623947144
1714858316912854300,0.490854248046875,9.003395080566406,3.930680751800537,-1.400607943534851
1714858316922803500,0.500803466796875,9.032125473022461,4.002506732940674,-1.414973258972168
1714858316932753000,0.5107529296875,9.012971878051758,4.04081392288208,-1.314416766166687
1714858316942702300,0.520702392578125,8.912415504455566,4.00729513168335,-1.2330138683319092
1714858316952651800,0.53065185546875,8.90762710571289,4.088697910308838,-1.094150185585022
1714858316962601000,0.54060107421875,8.93156909942627,4.16531229019165,-1.0319008827209473
1714858316972550400,0.55055029296875,8.917203903198242,4.069544315338135,-1.1085153818130493
1714858316982499800,0.560499755859375,8.759186744689941,3.839700937271118,-1.290474772453308
1714858316992449300,0.57044921875,8.491036415100098,3.7008373737335205,-1.5394717454910278
1714858317002398700,0.580398681640625,8.356961250305176,3.7199909687042236,-1.7070658206939697
1714858317012348400,0.590348388671875,8.208520889282227,3.7630865573883057,-1.678335428237915
1714858317022297900,0.6002978515625,8.275558471679688,3.9019501209259033,-1.4101848602294922
1714858317032247300,0.610247314453125,8.471882820129395,4.021660327911377,-1.3335703611373901
1714858317042196700,0.62019677734375,8.639476776123047,4.016871929168701,-1.338358759880066
1714858317052146200,0.630146240234375,8.763975143432617,3.9641995429992676,-1.4772224426269531
1714858317062095600,0.640095703125,8.744821548461914,3.7918169498443604,-1.6208745241165161
1714858317072045300,0.65004541015625,8.778340339660645,3.7678749561309814,-1.5538369417190552
1714858317081994800,0.659994873046875,9.017760276794434,3.978564739227295,-1.3239935636520386
1714858317091944200,0.669944091796875,9.319430351257324,4.194042682647705,-0.9792284965515137
1714858317101893600,0.6798935546875,9.4822359085083,4.25629186630249,-0.6919242739677429
1714858317111843000,0.689843017578125,9.419986724853516,4.261080265045166,-0.7110779285430908
1714858317121792500,0.69979248046875,9.209297180175781,4.213196277618408,-0.9792284965515137
1714858317131742000,0.709741943359375,9.295488357543945,4.189254283905029,-1.2617442607879639
1714858317141691600,0.719691650390625,9.884461402893066,4.261080265045166,-1.2330138683319092
1714858317151641000,0.72964111328125,10.243592262268066,4.318541526794434,-1.0079588890075684
1714858317161590500,0.739590576171875,10.032901763916016,4.371213912963867,-0.7541735172271729
1714858317171540000,0.7495400390625,9.807847023010254,4.44782829284668,-0.7781155705451965
1714858317181489400,0.759489501953125,10.013748168945312,4.581903457641602,-0.950498104095459
1714858317191438800,0.76943896484375,10.7511625289917,4.668094635009766,-0.993593692779541
1714858317201388500,0.779388427734375,10.679336547851562,4.438251495361328,-0.7589619159698486
1714858317211338000,0.789337890625,9.44871711730957,4.2515034675598145,-0.6631938815116882
1714858317221287400,0.799287353515625,8.548497200012207,4.22277307510376,-0.8020575642585754
1714858317231236900,0.80923681640625,7.844601631164551,4.294599533081055,-1.1659762859344482
1714858317241186300,0.819186279296875,7.442376136779785,4.529231071472168,-1.6735470294952393
1714858317251135700,0.8291357421875,7.293935298919678,4.950610637664795,-2.027888774871826
1714858317261085200,0.839085205078125,7.81108283996582,5.491700172424316,-1.946485996246338
1714858317271035000,0.849034912109375,8.198944091796875,5.812523365020752,-1.434126853942871
1714858317280984300,0.858984375,7.77756404876709,5.8221001625061035,-1.036689281463623
1714858317290933800,0.868933837890625,7.011419773101807,5.659294128417969,-1.0558429956436157
1714858317300883200,0.87888330078125,6.297947406768799,5.290587425231934,-1.5059528350830078
1714858317310832600,0.88883251953125,5.493495941162109,4.926668643951416,-2.123656988143921
1714858317320782000,0.898781982421875,5.000290393829346,4.553173065185547,-2.7892448902130127
1714858317330731500,0.9087314453125,5.426458358764648,4.490923881530762,-3.1866824626922607
1714858317340681000,0.918680908203125,6.451176643371582,4.519654273986816,-3.3063924312591553
1714858317350630400,0.92863037109375,7.313088893890381,4.486135482788086,-2.942473888397217
1714858317360579800,0.938579833984375,7.8541789054870605,4.682459831237793,-2.1140801906585693
1714858317370529300,0.948529296875,7.902062892913818,4.778227806091309,-1.3000515699386597
1714858317380478500,0.958478515625,7.715314865112305,4.75428581237793,-0.8451532125473022
1714858317390428000,0.968427978515625,7.571662902832031,4.854842662811279,-0.8451532125473022
1714858317400377300,0.97837744140625,7.739256858825684,4.902726650238037,-1.338358759880066
1714858317410326800,0.988326904296875,8.246828079223633,4.811747074127197,-1.7405846118927002
1714858317420276200,0.998276123046875,8.682572364807129,4.749497413635254,-1.721431016921997
1714858317430225700,1.0082255859375,8.941145896911621,4.730343818664551,-1.4963760375976562
1714858317440175000,1.018175048828125,8.979453086853027,4.668094635009766,-1.381454348564148
1714858317450124500,1.02812451171875,8.902838706970215,4.701613426208496,-1.2713210582733154
1714858317460074000,1.038073974609375,8.888473510742188,4.912303447723389,-1.137245774269104
1714858317470023400,1.0480234375,8.883685111999512,5.118204593658447,-1.213860273361206
1714858317479972900,1.057972900390625,8.29471206665039,5.1565117835998535,-1.3192051649093628
1714858317489922300,1.06792236328125,7.753622055053711,5.1134161949157715,-1.414973258972168
1714858317499871700,1.077871826171875,7.734468460083008,5.065532207489014,-1.7405846118927002
1714858317509821200,1.0878212890625,7.935581684112549,4.92188024520874,-2.1140801906585693
1714858317519770600,1.0977705078125,8.165425300598145,4.557961463928223,-2.4827871322631836
1714858317529720000,1.107719970703125,8.198944091796875,4.122216701507568,-2.717418909072876
1714858317539669500,1.11766943359375,8.107964515686035,3.9019501209259033,-2.7222073078155518
1714858317549619000,1.127618896484375,8.10317611694336,3.820547342300415,-2.827552318572998
1714858317559568400,1.137568359375,8.850166320800781,3.6960489749908447,-2.779668092727661
1714858317569517800,1.147517822265625,10.301053047180176,3.5619735717773438,-2.477998733520508
1714858317579467000,1.157467041015625,11.139023780822754,3.5045127868652344,-2.008735179901123
1714858317589416400,1.16741650390625,11.239580154418945,3.4278981685638428,-1.764526605606079
1714858317599366000,1.177365966796875,10.928333282470703,3.533243179321289,-1.8555063009262085
1714858317609315300,1.1873154296875,10.396821022033691,3.9498343467712402,-1.7884687185287476
1714858317619264800,1.1972646484375,9.740809440612793,4.3855791091918945,-1.4101848602294922
1714858317629214200,1.207214111328125,9.209297180175781,4.443039894104004,-1.290474772453308
1714858317639163600,1.21716357421875,8.787917137145996,4.213196277618408,-1.280897855758667
1714858317649113000,1.227113037109375,8.53413200378418,3.930680751800537,-1.256955862045288
1714858317659062500,1.2370625,8.553285598754883,3.935469150543213,-1.1899182796478271
1714858317669012000,1.247011962890625,9.14225959777832,4.0982747077941895,-1.256955862045288
1714858317678961400,1.25696142578125,9.467870712280273,4.2515034675598145,-1.2761094570159912
1714858317688910800,1.266910888671875,9.123106002807617,4.644152641296387,-1.036689281463623
1714858317698860300,1.2768603515625,8.672995567321777,5.084685802459717,-0.8978256583213806
1714858317708809700,1.286809814453125,8.198944091796875,5.055955410003662,-1.1276689767837524
1714858317718759200,1.29675927734375,7.91163969039917,4.639364242553711,-1.1851298809051514
1714858317728708600,1.30670849609375,8.256404876708984,4.308964729309082,-1.3096283674240112
1714858317738658000,1.316657958984375,8.893261909484863,4.059967517852783,-1.534683346748352
1714858317748607500,1.326607421875,9.319430351257324,3.9211037158966064,-1.5634137392044067
1714858317758557000,1.336556884765625,9.429563522338867,3.8540661334991455,-1.5825673341751099
1714858317768506400,1.34650634765625,9.190143585205078,3.868431329727173,-1.3623007535934448
1714858317778455600,1.35645556640625,9.05606746673584,4.179677486419678,-1.2090718746185303
1714858317788405000,1.366405029296875,8.811859130859375,4.543596267700195,-1.1180921792984009
1714858317798354400,1.3763544921875,8.328230857849121,4.548384666442871,-0.8547300100326538
1714858317808303900,1.386303955078125,7.993042469024658,4.5388078689575195,-0.6967126727104187
1714858317818253300,1.39625341796875,7.815871238708496,4.577115058898926,-1.070208191871643
1714858317828202800,1.40620263671875,7.897274494171143,4.457405090332031,-1.6208745241165161
1714858317838152200,1.416152099609375,8.146271705627441,4.318541526794434,-1.86508309841156
1714858317848101600,1.4261015625,8.47667121887207,4.371213912963867,-1.8171991109848022
1714858317858051000,1.436051025390625,8.888473510742188,4.471770286560059,-1.5682021379470825
1714858317868000500,1.44600048828125,8.989029884338379,4.486135482788086,-1.3000515699386597
1714858317877950000,1.455949951171875,9.151836395263672,4.514865875244141,-1.094150185585022
1714858317887899400,1.4658994140625,9.319430351257324,4.577115058898926,-0.8738836050033569
1714858317897848800,1.475848876953125,9.099164009094238,4.624999046325684,-0.7015010714530945
1714858317907798300,1.48579833984375,8.629899978637695,4.653729438781738,-0.7254431247711182
1714858317917747700,1.495747802734375,8.222886085510254,4.69682502746582,-0.8930372595787048
1714858317927697200,1.505697265625,8.146271705627441,4.687248229980469,-1.0319008827209473
1714858317937646600,1.515646484375,8.31865406036377,4.668094635009766,-1.0127472877502441
1714858317947596000,1.525595947265625,8.562862396240234,4.711190223693848,-0.9792284965515137
1714858317957545500,1.53554541015625,8.778340339660645,4.711190223693848,-1.0319008827209473
1714858317967494700,1.54549462890625,8.787917137145996,4.69682502746582,-1.070208191871643
1714858317977444400,1.5554443359375,8.778340339660645,4.687248229980469,-1.0797849893569946
1714858317987393800,1.565393798828125,8.668207168579102,4.730343818664551,-0.9983820915222168
1714858317997343200,1.57534326171875,8.519766807556152,4.783016681671143,-0.9361328482627869
1714858318007292700,1.585292724609375,8.605957984924316,4.75428581237793,-0.9744400978088379
1714858318017242000,1.5952421875,8.701725959777832,4.66330623626709,-1.1228805780410767
1714858318027191600,1.605191650390625,8.740033149719238,4.6489410400390625,-1.2186486721038818
1714858318037141200,1.615141357421875,8.725667953491211,4.672883033752441,-1.2330138683319092
1714858318047090700,1.625090576171875,8.653841972351074,4.639364242553711,-1.137245774269104
1714858318057040100,1.6350400390625,8.65863037109375,4.66330623626709,-1.0462661981582642
1714858318066989600,1.644989501953125,8.720879554748535,4.720767021179199,-0.9074024558067322
1714858318076939000,1.65493896484375,8.81664752960205,4.720767021179199,-0.8020575642585754
1714858318086888400,1.664888427734375,8.768763542175293,4.668094635009766,-0.9217676520347595
1714858318096838000,1.674837890625,8.56765079498291,4.586691856384277,-1.1851298809051514
1714858318106787600,1.68478759765625,8.47667121887207,4.438251495361328,-1.4389152526855469
1714858318116737000,1.694737060546875,8.495824813842773,4.409521102905273,-1.5155296325683594
1714858318126686500,1.7046865234375,8.696937561035156,4.519654273986816,-1.3335703611373901
1714858318136636000,1.714635986328125,8.941145896911621,4.557961463928223,-1.0749965906143188
1714858318146585300,1.72458544921875,9.017760276794434,4.601057052612305,-0.8786720037460327
1714858318156534800,1.73453466796875,8.854954719543457,4.66330623626709,-0.7589619159698486
1714858318166484500,1.744484375,8.524555206298828,4.687248229980469,-0.7637503147125244
1714858318176434000,1.754433837890625,8.376114845275879,4.69682502746582,-0.811634361743927
1714858318186383400,1.76438330078125,8.452729225158691,4.6489410400390625,-0.8355764150619507
1714858318196332800,1.774332763671875,8.65863037109375,4.624999046325684,-0.849941611289978
1714858318206282200,1.7842822265625,8.869319915771484,4.543596267700195,-0.9840168952941895
1714858318216231700,1.794231689453125,8.735244750976562,4.524442672729492,-1.1180921792984009
1714858318226181000,1.80418115234375,8.591592788696289,4.610633850097656,-1.1468225717544556
1714858318236130800,1.814130859375,8.582015991210938,4.644152641296387,-1.070208191871643
1714858318246080300,1.824080322265625,8.620323181152344,4.66330623626709,-0.9840168952941895
1714858318256029700,1.83402978515625,8.558073997497559,4.715978622436523,-0.9026140570640564
1714858318265979100,1.843979248046875,8.395268440246582,4.75428581237793,-0.8690952062606812
1714858318275928600,1.853928466796875,8.309077262878418,4.715978622436523,-0.8882488012313843
1714858318285878000,1.8638779296875,8.371326446533203,4.610633850097656,-1.0223240852355957
1714858318295827700,1.87382763671875,8.491036415100098,4.620210647583008,-1.1037269830703735
1714858318305777200,1.883777099609375,8.577227592468262,4.677671432495117,-1.070208191871643
1714858318315726600,1.8937265625,8.53413200378418,4.6489410400390625,-1.0031704902648926
1714858318325676000,1.903676025390625,8.438364028930664,4.668094635009766,-0.9265560507774353
1714858318335625500,1.91362548828125,8.414422035217285,4.6920366287231445,-0.912190854549408
1714858318345575000,1.923574951171875,8.481459617614746,4.6489410400390625,-0.9169792532920837
1714858318355524400,1.9335244140625,8.577227592468262,4.639364242553711,-0.9744400978088379
1714858318365474000,1.94347412109375,8.553285598754883,4.711190223693848,-0.950498104095459
1714858318375423500,1.953423583984375,8.538920402526855,4.749497413635254,-0.8834604024887085
1714858318385373000,1.963373046875,8.577227592468262,4.7590742111206055,-0.7733271718025208
1714858318395322400,1.973322265625,8.639476776123047,4.7590742111206055,-0.6775590777397156
1714858318405271800,1.983271728515625,8.720879554748535,4.701613426208496,-0.7350199222564697
1714858318415221200,1.99322119140625,8.711302757263184,4.658517837524414,-0.8786720037460327
1714858318425171000,2.0031708984375,8.634688377380371,4.6489410400390625,-0.9169792532920837
1714858318435120400,2.013120361328125,8.562862396240234,4.677671432495117,-0.8355764150619507
1714858318445069800,2.02306982421875,8.543708801269531,4.735132217407227,-0.7637503147125244
1714858318455019300,2.033019287109375,8.514978408813477,4.730343818664551,-0.7589619159698486
1714858318464968700,2.04296875,8.452729225158691,4.706401824951172,-0.7876923680305481
1714858318474918100,2.052918212890625,8.428787231445312,4.644152641296387,-0.8930372595787048
1714858318484867600,2.06286767578125,8.529343605041504,4.634575843811035,-0.9840168952941895
1714858318494817300,2.0728173828125,8.730456352233887,4.701613426208496,-0.9792284965515137
1714858318504766700,2.0827666015625,8.90762710571289,4.677671432495117,-0.950498104095459
1714858318514716200,2.092716064453125,8.898050308227539,4.706401824951172,-0.8882488012313843
1714858318524665600,2.10266552734375,8.763975143432617,4.7590742111206055,-0.7589619159698486
1714858318534615000,2.112614990234375,8.524555206298828,4.739920616149902,-0.7445967197418213
1714858318544564500,2.122564453125,8.328230857849121,4.711190223693848,-0.8690952062606812
1714858318554514000,2.132513916015625,8.251616477966309,4.6920366287231445,-0.9648633003234863
1714858318564463000,2.142463134765625,8.395268440246582,4.644152641296387,-0.9744400978088379
1714858318574412500,2.15241259765625,8.763975143432617,4.548384666442871,-0.9983820915222168
1714858318584362000,2.162362060546875,9.051279067993164,4.443039894104004,-1.0558429956436157
1714858318594311400,2.1723115234375,9.02254867553711,4.486135482788086,-1.0079588890075684
1714858318604260900,2.1822607421875,8.81664752960205,4.557961463928223,-0.950498104095459
1714858318614210300,2.192210205078125,8.577227592468262,4.591480255126953,-0.849941611289978
1714858318624159700,2.20215966796875,8.491036415100098,4.672883033752441,-0.6584054827690125
1714858318634109200,2.212109130859375,8.467094421386719,4.763862609863281,-0.48602294921875
1714858318644058600,2.22205859375,8.428787231445312,4.7590742111206055,-0.5003881454467773
1714858318654008000,2.232008056640625,8.514978408813477,4.711190223693848,-0.6057330369949341
1714858318663957500,2.24195751953125,8.60116958618164,4.672883033752441,-0.768538773059845
1714858318673907000,2.251906982421875,8.677783966064453,4.639364242553711,-0.9026140570640564
1714858318683856400,2.2618564453125,8.74960994720459,4.57232666015625,-0.9265560507774353
1714858318693805800,2.271805908203125,8.78312873840332,4.548384666442871,-0.912190854549408
1714858318703755300,2.28175537109375,8.84058952331543,4.601057052612305,-0.9265560507774353
1714858318713704700,2.29170458984375,8.8070707321167,4.591480255126953,-0.8930372595787048
1714858318723654100,2.301654052734375,8.644265174865723,4.586691856384277,-0.8690952062606812
1714858318733603600,2.311603515625,8.505401611328125,4.629787445068359,-0.8307880163192749
1714858318743553000,2.321552978515625,8.505401611328125,4.66330623626709,-0.730231523513794
1714858318753502200,2.331502197265625,8.47667121887207,4.706401824951172,-0.7015010714530945
1714858318763451600,2.34145166015625,8.337807655334473,4.739920616149902,-0.7541735172271729
1714858318773401000,2.351401123046875,8.333019256591797,4.725555419921875,-0.7541735172271729
1714858318783350500,2.3613505859375,8.390480041503906,4.687248229980469,-0.7158663272857666
1714858318793300000,2.371300048828125,8.462306022644043,4.653729438781738,-0.7637503147125244
1714858318803249400,2.38124951171875,8.538920402526855,4.596268653869629,-0.8882488012313843
1714858318813198800,2.39119873046875,8.538920402526855,4.557961463928223,-0.9600749015808105
1714858318823148300,2.401148193359375,8.586804389953613,4.601057052612305,-0.8786720037460327
1714858318833097700,2.41109765625,8.74960994720459,4.634575843811035,-0.7206547260284424
1714858318843047200,2.421047119140625,8.797493934631348,4.639364242553711,-0.6009446382522583
1714858318852996600,2.43099658203125,8.821435928344727,4.701613426208496,-0.5722141861915588
1714858318862946000,2.440946044921875,8.864531517028809,4.730343818664551,-0.49559974670410156
1714858318872895500,2.4508955078125,8.854954719543457,4.682459831237793,-0.4668693244457245
1714858318882845000,2.460844970703125,8.735244750976562,4.658517837524414,-0.586579442024231
1714858318892794400,2.47079443359375,8.591592788696289,4.624999046325684,-0.7781155705451965
1714858318902743800,2.480743896484375,8.524555206298828,4.562749862670898,-0.9409212470054626
1714858318912693200,2.490693359375,8.56765079498291,4.514865875244141,-1.01753568649292
1714858318922642700,2.500642578125,8.725667953491211,4.524442672729492,-0.9457096457481384
1714858318932592400,2.51059228515625,8.898050308227539,4.548384666442871,-0.8451532125473022
1714858318942541800,2.520541748046875,8.950722694396973,4.519654273986816,-0.8403648138046265
1714858318952491300,2.5304912109375,8.921992301940918,4.490923881530762,-0.9313444495201111
1714858318962440700,2.540440673828125,8.835801124572754,4.505289077758789,-0.9600749015808105
1714858318972390100,2.55039013671875,8.792705535888672,4.4957122802734375,-0.9313444495201111
1714858318982339600,2.560339599609375,8.744821548461914,4.48134708404541,-0.9026140570640564
1714858318992289300,2.570289306640625,8.687360763549805,4.490923881530762,-0.9169792532920837
1714858319002238700,2.58023876953125,8.586804389953613,4.500500679016113,-0.9409212470054626
1714858319012188200,2.590188232421875,8.505401611328125,4.48134708404541,-0.9696516990661621
1714858319022137600,2.6001376953125,8.543708801269531,4.48134708404541,-0.9696516990661621
1714858319032087000,2.610087158203125,8.639476776123047,4.486135482788086,-0.9217676520347595
1714858319042036500,2.620036376953125,8.69214916229248,4.490923881530762,-0.8738836050033569
1714858319051986000,2.62998583984375,8.610746383666992,4.519654273986816,-0.8259995579719543
1714858319061935600,2.639935546875,8.495824813842773,4.562749862670898,-0.7589619159698486
1714858319071885000,2.649885009765625,8.419210433959961,4.553173065185547,-0.7398083209991455
1714858319081834500,2.65983447265625,8.467094421386719,4.510077476501465,-0.811634361743927
1714858319091784000,2.669783935546875,8.572439193725586,4.519654273986816,-0.8595184087753296
1714858319101733400,2.6797333984375,8.60116958618164,4.553173065185547,-0.8403648138046265
1714858319111682800,2.689682861328125,8.543708801269531,4.57232666015625,-0.7493851184844971
1714858319121632500,2.699632568359375,8.452729225158691,4.6058454513549805,-0.6344634294509888
1714858319131582000,2.70958203125,8.529343605041504,4.66330623626709,-0.5913678407669067
1714858319141531400,2.719531494140625,8.69214916229248,4.658517837524414,-0.6057330369949341
1714858319151480800,2.729480712890625,8.706514358520508,4.577115058898926,-0.6871358752250671
1714858319161430300,2.73943017578125,8.582015991210938,4.567538261413574,-0.8068459630012512
1714858319171379700,2.749379638671875,8.505401611328125,4.6058454513549805,-0.8307880163192749
1714858319181329200,2.7593291015625,8.586804389953613,4.634575843811035,-0.7254431247711182
1714858319191278800,2.76927880859375,8.744821548461914,4.629787445068359,-0.706289529800415
1714858319201228300,2.779228271484375,8.831012725830078,4.620210647583008,-0.7206547260284424
1714858319211177700,2.789177734375,8.81664752960205,4.639364242553711,-0.6631938815116882
1714858319221127200,2.799127197265625,8.720879554748535,4.668094635009766,-0.6871358752250671
1714858319231076600,2.80907666015625,8.457517623901367,4.66330623626709,-0.7493851184844971
1714858319241026000,2.819026123046875,8.270770072937012,4.715978622436523,-0.7158663272857666
1714858319250975500,2.8289755859375,8.309077262878418,4.773439407348633,-0.6344634294509888
1714858319260925200,2.83892529296875,8.447940826416016,4.768651008605957,-0.5578489899635315
1714858319270874600,2.84887451171875,8.605957984924316,4.75428581237793,-0.5434837937355042
1714858319280824000,2.858823974609375,8.740033149719238,4.715978622436523,-0.5961562395095825
1714858319290773500,2.8687734375,8.831012725830078,4.677671432495117,-0.6584054827690125
1714858319300723000,2.878722900390625,8.90762710571289,4.624999046325684,-0.7158663272857666
1714858319310672400,2.88867236328125,8.941145896911621,4.610633850097656,-0.7206547260284424
1714858319320622000,2.8986220703125,8.893261909484863,4.634575843811035,-0.6440402865409851
1714858319330571500,2.908571533203125,8.826224327087402,4.653729438781738,-0.5961562395095825
1714858319340521000,2.91852099609375,8.730456352233887,4.677671432495117,-0.5674257874488831
1714858319350470400,2.928470458984375,8.725667953491211,4.658517837524414,-0.6344634294509888
1714858319360419800,2.938419921875,8.763975143432617,4.620210647583008,-0.7589619159698486
1714858319370369300,2.948369384765625,8.78312873840332,4.615422248840332,-0.811634361743927
1714858319380318700,2.958318603515625,8.821435928344727,4.620210647583008,-0.7733271718025208
1714858319390268400,2.968268310546875,8.78312873840332,4.639364242553711,-0.7206547260284424
1714858319400217900,2.9782177734375,8.668207168579102,4.653729438781738,-0.6823474764823914
1714858319410167300,2.988167236328125,8.538920402526855,4.658517837524414,-0.6536170840263367
1714858319420116700,2.99811669921875,8.457517623901367,4.668094635009766,-0.6536170840263367
1714858319430066200,3.008066162109375,8.462306022644043,4.69682502746582,-0.6344634294509888
1714858319440015600,3.018015625,8.481459617614746,4.725555419921875,-0.5386953949928284
1714858319449965300,3.02796533203125,8.471882820129395,4.730343818664551,-0.4908113479614258
1714858319459914800,3.037914794921875,8.47667121887207,4.720767021179199,-0.5386953949928284
1714858319469864200,3.0478642578125,8.50061321258545,4.677671432495117,-0.6440402865409851
1714858319479813600,3.057813720703125,8.553285598754883,4.644152641296387,-0.7589619159698486
1714858319489763000,3.06776318359375,8.653841972351074,4.620210647583008,-0.7637503147125244
1714858319499712500,3.07771240234375,8.69214916229248,4.615422248840332,-0.7350199222564697
1714858319509662000,3.087661865234375,8.629899978637695,4.639364242553711,-0.7110779285430908
1714858319519611600,3.097611572265625,8.558073997497559,4.66330623626709,-0.6967126727104187
1714858319529561000,3.10756103515625,8.548497200012207,4.658517837524414,-0.6775590777397156
1714858319539510500,3.117510498046875,8.529343605041504,4.668094635009766,-0.6727706789970398
1714858319549460000,3.1274599609375,8.529343605041504,4.69682502746582,-0.6009446382522583
1714858319559409400,3.137409423828125,8.495824813842773,4.677671432495117,-0.5913678407669067
1714858319569358800,3.14735888671875,8.471882820129395,4.658517837524414,-0.6823474764823914
1714858319579308500,3.15730859375,8.514978408813477,4.639364242553711,-0.7541735172271729
1714858319589258000,3.167258056640625,8.582015991210938,4.596268653869629,-0.7733271718025208
1714858319599207400,3.17720751953125,8.634688377380371,4.620210647583008,-0.7541735172271729
1714858319609156900,3.187156982421875,8.701725959777832,4.6489410400390625,-0.6823474764823914
1714858319619106300,3.197106201171875,8.735244750976562,4.653729438781738,-0.6584054827690125
1714858319629055700,3.2070556640625,8.668207168579102,4.629787445068359,-0.6919242739677429
1714858319639005200,3.217005126953125,8.586804389953613,4.610633850097656,-0.7924807667732239
1714858319648955000,3.226954833984375,8.610746383666992,4.634575843811035,-0.7493851184844971
1714858319658904300,3.236904296875,8.725667953491211,4.687248229980469,-0.5961562395095825
1714858319668853800,3.246853759765625,8.763975143432617,4.701613426208496,-0.49559974670410156
1714858319678803200,3.25680322265625,8.725667953491211,4.672883033752441,-0.5339069962501526
1714858319688752600,3.266752685546875,8.663418769836426,4.639364242553711,-0.6392518281936646
1714858319698702000,3.2767021484375,8.610746383666992,4.653729438781738,-0.706289529800415
1714858319708651800,3.28665185546875,8.629899978637695,4.66330623626709,-0.706289529800415
1714858319718601200,3.296601318359375,8.649053573608398,4.677671432495117,-0.6344634294509888
1714858319728550700,3.306550537109375,8.672995567321777,4.701613426208496,-0.524330198764801
1714858319738500000,3.3165,8.69214916229248,4.706401824951172,-0.4668693244457245
1714858319748449500,3.326449462890625,8.701725959777832,4.682459831237793,-0.5434837937355042
1714858319758399000,3.33639892578125,8.711302757263184,4.653729438781738,-0.6344634294509888
1714858319768348400,3.346348388671875,8.672995567321777,4.682459831237793,-0.6967126727104187
1714858319778298000,3.356298095703125,8.591592788696289,4.672883033752441,-0.7398083209991455
1714858319788247600,3.36624755859375,8.629899978637695,4.6489410400390625,-0.7158663272857666
1714858319798197000,3.376197021484375,8.792705535888672,4.644152641296387,-0.6488286852836609
1714858319808146400,3.386146484375,8.898050308227539,4.6489410400390625,-0.6105214357376099
1714858319818095900,3.396095947265625,8.917203903198242,4.634575843811035,-0.667982280254364
1714858319828045300,3.40604541015625,8.854954719543457,4.577115058898926,-0.7781155705451965
1714858319837995000,3.4159951171875,8.687360763549805,4.562749862670898,-0.8978256583213806
1714858319847944400,3.4259443359375,8.44315242767334,4.562749862670898,-0.9792284965515137
1714858319857894000,3.435893798828125,8.313865661621094,4.591480255126953,-0.9457096457481384
1714858319867843300,3.44584326171875,8.356961250305176,4.634575843811035,-0.8403648138046265
1714858319877792800,3.455792724609375,8.44315242767334,4.668094635009766,-0.7254431247711182
1714858319887742200,3.4657421875,8.634688377380371,4.668094635009766,-0.629675030708313
1714858319897691600,3.475691650390625,8.706514358520508,4.639364242553711,-0.6153098344802856
1714858319907641300,3.485641357421875,8.773551940917969,4.629787445068359,-0.667982280254364
1714858319917590800,3.4955908203125,8.78312873840332,4.601057052612305,-0.7015010714530945
1714858319927540200,3.505540283203125,8.725667953491211,4.615422248840332,-0.6440402865409851
1714858319937489700,3.51548974609375,8.740033149719238,4.634575843811035,-0.586579442024231
1714858319947439000,3.525439208984375,8.71609115600586,4.624999046325684,-0.5770025849342346
1714858319957388500,3.535388427734375,8.668207168579102,4.610633850097656,-0.629675030708313
1714858319967338200,3.545338134765625,8.644265174865723,4.601057052612305,-0.6440402865409851
1714858319977287700,3.55528759765625,8.696937561035156,4.581903457641602,-0.6488286852836609
1714858319987237000,3.565237060546875,8.763975143432617,4.57232666015625,-0.6584054827690125
1714858319997186600,3.5751865234375,8.792705535888672,4.557961463928223,-0.6536170840263367
1714858320007136000,3.585135986328125,8.768763542175293,4.591480255126953,-0.6153098344802856
1714858320017085400,3.59508544921875,8.649053573608398,4.6489410400390625,-0.5674257874488831
1714858320027035000,3.605034912109375,8.529343605041504,4.701613426208496,-0.5051765441894531
1714858320036984600,3.614984619140625,8.524555206298828,4.706401824951172,-0.4668693244457245
1714858320046934000,3.62493408203125,8.524555206298828,4.69682502746582,-0.44771572947502136
1714858320056883500,3.634883544921875,8.577227592468262,4.706401824951172,-0.42856210470199585
1714858320066833000,3.6448330078125,8.639476776123047,4.715978622436523,-0.3711012601852417
1714858320076782300,3.6547822265625,8.605957984924316,4.715978622436523,-0.3519476354122162
1714858320086731800,3.664731689453125,8.582015991210938,4.711190223693848,-0.4189853072166443
1714858320096681200,3.67468115234375,8.562862396240234,4.6489410400390625,-0.48602294921875
1714858320106630700,3.684630615234375,8.577227592468262,4.620210647583008,-0.4908113479614258
1714858320116580000,3.694580078125,8.663418769836426,4.615422248840332,-0.524330198764801
1714858320126529500,3.704529541015625,8.720879554748535,4.624999046325684,-0.524330198764801
1714858320136479000,3.71447900390625,8.668207168579102,4.6058454513549805,-0.5482721924781799
1714858320146428400,3.724428466796875,8.591592788696289,4.601057052612305,-0.5961562395095825
1714858320156377900,3.7343779296875,8.53413200378418,4.577115058898926,-0.6488286852836609
1714858320166327300,3.744327392578125,8.486248016357422,4.553173065185547,-0.7158663272857666
1714858320176276700,3.75427685546875,8.457517623901367,4.519654273986816,-0.7781155705451965
1714858320186226200,3.76422607421875,8.447940826416016,4.519654273986816,-0.8259995579719543
1714858320196175600,3.774175537109375,8.433575630187988,4.524442672729492,-0.8355764150619507
1714858320206125000,3.784125,8.433575630187988,4.510077476501465,-0.8595184087753296
1714858320216074200,3.79407421875,8.447940826416016,4.476558685302734,-0.9265560507774353
1714858320226023700,3.804023681640625,8.467094421386719,4.471770286560059,-0.9840168952941895
1714858320235973000,3.81397314453125,8.538920402526855,4.500500679016113,-0.9265560507774353
1714858320245922600,3.823922607421875,8.682572364807129,4.529231071472168,-0.811634361743927
1714858320255872000,3.8338720703125,8.84058952331543,4.529231071472168,-0.7493851184844971
1714858320265821400,3.843821533203125,8.917203903198242,4.514865875244141,-0.7733271718025208
1714858320275771000,3.85377099609375,8.811859130859375,4.4957122802734375,-0.8307880163192749
1714858320285720300,3.86372021484375,8.69214916229248,4.500500679016113,-0.8834604024887085
1714858320295669800,3.873669677734375,8.668207168579102,4.529231071472168,-0.9265560507774353
1714858320305619200,3.883619140625,8.725667953491211,4.553173065185547,-0.912190854549408
1714858320315568600,3.893568603515625,8.859743118286133,4.596268653869629,-0.8068459630012512
1714858320325518000,3.90351806640625,8.960299491882324,4.620210647583008,-0.7015010714530945
1714858320335467500,3.913467529296875,8.979453086853027,4.653729438781738,-0.6057330369949341
1714858320345417000,3.9234169921875,8.950722694396973,4.682459831237793,-0.5482721924781799
1714858320355366400,3.933366455078125,8.859743118286133,4.687248229980469,-0.5339069962501526
1714858320365315800,3.94331591796875,8.763975143432617,4.69682502746582,-0.5913678407669067
1714858320375265300,3.953265380859375,8.725667953491211,4.706401824951172,-0.6200982332229614
1714858320385214700,3.963214599609375,8.802282333374023,4.69682502746582,-0.5339069962501526
1714858320395164200,3.9731640625,8.969876289367676,4.682459831237793,-0.5147533416748047
1714858320405113600,3.983113525390625,8.965087890625,4.668094635009766,-0.6248866319656372
1714858320415063000,3.99306298828125,8.81664752960205,4.634575843811035,-0.7829039692878723
1714858320425012700,4.0030126953125,8.687360763549805,4.596268653869629,-0.8259995579719543
1714858320434962200,4.012962158203125,8.831012725830078,4.620210647583008,-0.706289529800415
1714858320444911600,4.02291162109375,9.084798812866211,4.615422248840332,-0.6248866319656372
1714858320454861000,4.032861083984375,9.127894401550293,4.529231071472168,-0.5578489899635315
1714858320464810500,4.042810546875,9.080010414123535,4.567538261413574,-0.5770025849342346
1714858320474760000,4.052760009765625,8.864531517028809,4.586691856384277,-0.6153098344802856
1714858320484709600,4.062709716796875,8.845377922058105,4.438251495361328,-0.6488286852836609
1714858320494659000,4.0726591796875,8.71609115600586,4.471770286560059,-0.7350199222564697
1714858320504608500,4.0826083984375,8.740033149719238,4.773439407348633,-0.730231523513794
1714858320514558000,4.092557861328125,9.673771858215332,4.984129428863525,-0.3758896589279175
1714858320524507400,4.10250732421875,10.813411712646484,4.955399036407471,0.14604631066322327
1714858320534456800,4.112456787109375,11.08635139465332,4.730343818664551,0.18914192914962769
1714858320544406300,4.12240625,11.05283260345459,4.577115058898926,-0.17477671802043915
1714858320554356000,4.13235595703125,10.224438667297363,4.524442672729492,-0.49559974670410156
1714858320564305400,4.142305419921875,8.989029884338379,4.730343818664551,-0.6153098344802856
1714858320574254800,4.1522548828125,8.040925979614258,5.127781391143799,-0.395043283700943
1714858320584204300,4.162204345703125,7.231686115264893,5.343259811401367,-0.15562310814857483
1714858320594153700,4.17215380859375,6.4415998458862305,5.688024520874023,0.18914192914962769
1714858320604103200,4.182103271484375,6.934805393218994,5.798158168792725,0.9696516990661621
1714858320614052900,4.192052978515625,7.044938564300537,5.5778913497924805,1.3623007535934448
1714858320624002300,4.202002197265625,7.179013729095459,5.8651957511901855,0.9840168952941895
1714858320633951700,4.21195166015625,7.269993305206299,6.0423665046691895,0.44771572947502136
1714858320643901200,4.221901123046875,7.169436931610107,5.817311763763428,-0.22266076505184174
1714858320653850600,4.2318505859375,6.877344608306885,5.539584159851074,-0.9744400978088379
1714858320663800000,4.241800048828125,6.4080810546875,5.458181381225586,-1.3910311460494995
1714858320673749500,4.25174951171875,6.250063419342041,5.597044944763184,-1.7357962131500244
1714858320683699200,4.26169921875,5.9771246910095215,5.640140533447266,-2.0231003761291504
1714858320693648600,4.271648681640625,5.718550682067871,5.549160957336426,-2.013523578643799
1714858320703598000,4.28159814453125,6.0872578620910645,5.640140533447266,-1.721431016921997
1714858320713547500,4.291547607421875,7.131129741668701,5.740696907043457,-1.137245774269104
1714858320723497000,4.3014970703125,7.873332500457764,5.72633171081543,-0.45250412821769714
1714858320733446400,4.3114462890625,8.237251281738281,5.6640825271606445,0.19871874153614044
1714858320743396000,4.32139599609375,8.31865406036377,5.482123374938965,0.586579442024231
1714858320753345500,4.331345458984375,8.141483306884766,5.601833343505859,0.9265560507774353
1714858320763295000,4.341294921875,8.122329711914062,5.482123374938965,1.3718775510787964
1714858320773244400,4.351244384765625,8.222886085510254,5.4677581787109375,1.4293384552001953
1714858320783193900,4.36119384765625,8.251616477966309,5.54437255859375,0.8307880163192749
1714858320793143300,4.371143310546875,7.739256858825684,5.45339298248291,0.1364694982767105
1714858320803092700,4.3810927734375,6.494272232055664,5.587468147277832,0.011971008032560349
1714858320813042400,4.39104248046875,5.814318656921387,5.601833343505859,0.28969839215278625
1714858320822992000,4.400991943359375,6.077681064605713,5.386355400085449,0.4668693244457245
1714858320832941300,4.41094140625,6.819883346557617,5.386355400085449,0.2944868206977844
1714858320842890800,4.420890869140625,7.418434143066406,5.32889461517334,0.0071826050989329815
1714858320852840200,4.430840087890625,7.959523677825928,4.9170918464660645,-0.2082955539226532
1714858320862789600,4.44078955078125,8.26119327545166,4.639364242553711,-0.42856210470199585
1714858320872739300,4.4507392578125,8.361749649047852,4.682459831237793,-0.5339069962501526
1714858320882688800,4.460688720703125,7.7201032638549805,4.97934103012085,-0.36152446269989014
1714858320892638200,4.47063818359375,7.126341342926025,5.252279758453369,0.21308395266532898
1714858320902587600,4.480587646484375,6.661866188049316,5.22833776473999,0.5482721924781799
1714858320912537000,4.490537109375,6.460753440856934,5.2714338302612305,0.3232172429561615
1714858320922486500,4.500486572265625,6.403292655944824,5.309741020202637,0.040701430290937424
1714858320932436000,4.51043603515625,6.915651798248291,5.261856555938721,-0.2513911724090576
1714858320942385700,4.5203857421875,7.858967304229736,5.036801815032959,-0.5674257874488831
1714858320952335000,4.530335205078125,8.921992301940918,4.744709014892578,-0.6488286852836609
1714858320962284500,4.540284423828125,9.673771858215332,4.634575843811035,-0.5195417404174805
1714858320972234000,4.55023388671875,9.850942611694336,4.610633850097656,-0.16519992053508759
1714858320982183400,4.560183349609375,9.621099472045898,4.711190223693848,0.4668693244457245
1714858320992132900,4.5701328125,9.29069995880127,4.826112270355225,0.9361328482627869
1714858321002082600,4.58008251953125,8.917203903198242,4.826112270355225,0.9744400978088379
1714858321012032000,4.590031982421875,8.328230857849121,4.92188024520874,0.8882488012313843
1714858321021981400,4.5999814453125,7.997830867767334,4.907515048980713,0.6631938815116882
1714858321031931000,4.609930908203125,7.978677272796631,4.763862609863281,0.304063618183136
1714858321041880300,4.61988037109375,8.175002098083496,4.682459831237793,-0.22266076505184174
1714858321051829800,4.629829833984375,8.356961250305176,4.581903457641602,-0.9696516990661621
1714858321061779200,4.639779296875,8.428787231445312,4.486135482788086,-1.4915876388549805
1714858321071729000,4.64972900390625,8.701725959777832,4.4526166915893555,-1.802833914756775
1714858321081678300,4.65967822265625,9.080010414123535,4.371213912963867,-1.98958158493042
1714858321091627800,4.669627685546875,9.793481826782227,4.3424835205078125,-2.118868589401245
1714858321101577200,4.6795771484375,10.54526138305664,4.304176330566406,-2.032677173614502
1714858321111526700,4.689526611328125,10.617087364196777,4.476558685302734,-1.3958195447921753
1714858321121476000,4.69947607421875,10.621875762939453,4.639364242553711,-0.38067805767059326
1714858321131425800,4.70942578125,11.105504989624023,4.821323871612549,0.3663128614425659
1714858321141375200,4.719375244140625,11.526884078979492,4.912303447723389,0.44771572947502136
1714858321151324700,4.72932470703125,11.522095680236816,4.984129428863525,0.31364041566848755
1714858321161274000,4.739274169921875,11.215638160705566,4.835689067840576,0.16998831927776337
1714858321171223600,4.7492236328125,10.779892921447754,4.907515048980713,-0.15083470940589905
1714858321181173000,4.759173095703125,10.095151901245117,5.008071422576904,-0.3519476354122162
1714858321191122400,4.769122314453125,9.534908294677734,5.022436618804932,-0.14604631066322327
1714858321201072000,4.779072021484375,9.027337074279785,5.209184169769287,0.2753331959247589
1714858321211021600,4.789021484375,8.854954719543457,5.496488571166992,1.2090718746185303
1714858321220971000,4.798970947265625,8.993818283081055,6.056731700897217,2.0231003761291504
1714858321230920400,4.80892041015625,8.677783966064453,6.224325656890869,2.4396915435791016
1714858321240870000,4.818869873046875,8.198944091796875,6.7031660079956055,1.8555063009262085
1714858321250819300,4.8288193359375,7.293935298919678,6.684012413024902,0.9648633003234863
1714858321260768800,4.838768798828125,6.80551815032959,6.712742805480957,0.43335050344467163
1714858321270718500,4.848718505859375,6.743268966674805,6.779780864715576,0.2322375625371933
1714858321280668000,4.85866796875,7.097610950469971,6.722319602966309,0.4141969084739685
1714858321290617300,4.868617431640625,7.791929244995117,6.320094108581543,0.6248866319656372
1714858321300566800,4.87856689453125,8.328230857849121,6.20038366317749,0.395043283700943
1714858321310516200,4.88851611328125,8.22767448425293,6.530783653259277,0.20350714027881622
1714858321320465700,4.898465576171875,7.787140846252441,6.152499675750732,-0.30885201692581177
1714858321330415000,4.9084150390625,7.495048522949219,6.444592475891113,0.18914192914962769
1714858321340364500,4.918364501953125,7.897274494171143,6.387131690979004,0.6631938815116882
1714858321350314000,4.92831396484375,7.9451584815979,6.253056526184082,0.44771572947502136
1714858321360263400,4.938263427734375,7.677007675170898,6.118980884552002,-0.011971008032560349
1714858321370212900,4.948212890625,7.772775650024414,5.970540523529053,-0.44771572947502136
1714858321380162300,4.958162353515625,8.117541313171387,5.573102951049805,-0.3280056416988373
1714858321390111500,4.968111572265625,8.404845237731934,5.606621742248535,-0.5626373887062073
1714858321400061000,4.97806103515625,8.945934295654297,5.415085792541504,-0.7829039692878723
1714858321410010400,4.98801025390625,9.635464668273926,5.41987419128418,-1.0845733880996704
1714858321419959800,4.997959716796875,10.746374130249023,5.089474201202393,-1.9273324012756348
1714858321429909200,5.0079091796875,11.51730728149414,5.099050998687744,-1.4484920501708984
1714858321439858700,5.017858642578125,11.493365287780762,5.352836608886719,-0.40462008118629456
1714858321449808100,5.02780810546875,10.952275276184082,5.304952621459961,-0.10773907601833344
1714858321459757600,5.037757568359375,9.90361499786377,5.482123374938965,-0.33758243918418884
1714858321469707000,5.04770703125,8.759186744689941,5.616198539733887,-0.4908113479614258
1714858321479656400,5.057656494140625,7.825448036193848,5.32889461517334,-0.6200982332229614
1714858321489606000,5.06760595703125,7.150283336639404,5.276222229003906,-0.6344634294509888
1714858321499555300,5.077555419921875,5.962759494781494,5.989694118499756,0.05985504388809204
1714858321509504800,5.0875048828125,6.192602634429932,5.415085792541504,0.1843535304069519
1714858321519454200,5.0974541015625,6.920440196990967,5.089474201202393,-0.395043283700943
1714858321529403600,5.107403564453125,7.049726963043213,5.166088581085205,-1.3958195447921753
1714858321539353000,5.11735302734375,7.3418192863464355,5.36241340637207,-1.577778935432434
1714858321549302500,5.127302490234375,7.935581684112549,4.945822238922119,-1.5729905366897583
1714858321559252000,5.137251953125,8.735244750976562,4.859631061553955,-1.4389152526855469
1714858321569201400,5.147201416015625,9.185355186462402,4.902726650238037,-1.5442601442337036
1714858321579150600,5.157150634765625,9.477447509765625,4.773439407348633,-1.9273324012756348
1714858321589100000,5.16710009765625,9.578003883361816,4.557961463928223,-2.3343467712402344
1714858321599049500,5.177049560546875,9.295488357543945,4.4957122802734375,-2.8562827110290527
1714858321608999000,5.1869990234375,8.639476776123047,4.596268653869629,-3.3925838470458984
1714858321618948400,5.1969482421875,7.605181694030762,4.677671432495117,-3.2585084438323975
1714858321628897800,5.206897705078125,7.111976146697998,4.720767021179199,-2.205059766769409
1714858321638847200,5.21684716796875,7.241262912750244,4.9601874351501465,-0.8738836050033569
1714858321648796700,5.226796630859375,8.151060104370117,5.180453777313232,0.3519476354122162
1714858321658746000,5.23674609375,8.960299491882324,5.281010627746582,0.6775590777397156
1714858321668695600,5.246695556640625,9.14225959777832,5.261856555938721,0.07422025501728058
1714858321678645000,5.25664501953125,8.663418769836426,5.132569789886475,-0.8307880163192749
1714858321688594400,5.266594482421875,7.9451584815979,4.92188024520874,-1.6543933153152466
1714858321698543900,5.2765439453125,7.202955722808838,4.6920366287231445,-2.3582887649536133
1714858321708493300,5.286493408203125,6.757634162902832,4.596268653869629,-3.004723072052002
1714858321718442800,5.29644287109375,6.657077789306641,4.529231071472168,-3.536235809326172
1714858321728392200,5.30639208984375,6.93959379196167,4.620210647583008,-3.3494882583618164
1714858321738342000,5.316341796875,8.323442459106445,4.787805080413818,-1.5921441316604614
1714858321748291300,5.326291259765625,10.267534255981445,4.8500542640686035,0.7206547260284424
1714858321758240800,5.33624072265625,11.579556465148926,5.065532207489014,1.941697597503662
1714858321768190200,5.346190185546875,11.751938819885254,5.247491359710693,1.8076223134994507
1714858321778139600,5.3561396484375,10.918756484985352,5.01285982131958,0.8164227604866028
1714858321788089000,5.366089111328125,9.530119895935059,4.744709014892578,-0.5530605912208557
1714858321798038500,5.37603857421875,8.270770072937012,4.6920366287231445,-1.778891921043396
1714858321807988200,5.38598828125,7.576451301574707,4.66330623626709,-2.473210334777832
1714858321817937700,5.395937744140625,7.68658447265625,4.840477466583252,-2.315192937850952
1714858321827887000,5.40588720703125,8.093599319458008,5.161300182342529,-1.577778935432434
1714858321837836500,5.41583642578125,8.29471206665039,5.233126163482666,-0.6105214357376099
1714858321847786000,5.425785888671875,8.232462882995605,5.257068157196045,-0.17477671802043915
1714858321857735400,5.4357353515625,8.151060104370117,5.343259811401367,-0.30885201692581177
1714858321867684900,5.445684814453125,7.983465671539307,5.352836608886719,-0.42856210470199585
1714858321877634600,5.455634521484375,7.844601631164551,5.309741020202637,-0.28969839215278625
1714858321887584000,5.465583984375,7.700949668884277,5.2714338302612305,-0.16519992053508759
1714858321897533400,5.475533447265625,7.538144111633301,5.170876979827881,-0.3711012601852417
1714858321907483000,5.48548291015625,7.466318130493164,5.027225017547607,-0.5099649429321289
1714858321917432300,5.495432373046875,7.648277282714844,4.969764232635498,-0.6057330369949341
1714858321927381800,5.5053818359375,7.940370082855225,5.01285982131958,-0.6823474764823914
1714858321937331500,5.51533154296875,8.218097686767578,5.01285982131958,-0.6105214357376099
1714858321947281000,5.525281005859375,8.505401611328125,5.022436618804932,-0.36152446269989014
1714858321957230300,5.535230224609375,8.582015991210938,5.060743808746338,-0.011971008032560349
1714858321967179800,5.5451796875,8.577227592468262,5.036801815032959,0.16519992053508759
1714858321977129200,5.555129150390625,8.524555206298828,5.032013416290283,0.22744916379451752
1714858321987078700,5.56507861328125,8.40963363647461,5.089474201202393,0.28969839215278625
1714858321997028000,5.575028076171875,8.270770072937012,5.0032830238342285,0.11252748221158981
1714858322006977800,5.584977783203125,8.074444770812988,5.022436618804932,0.016759412363171577
1714858322016927200,5.59492724609375,7.748833656311035,5.022436618804932,-0.1173158809542656
1714858322026876700,5.604876708984375,7.447164535522461,4.907515048980713,-0.36152446269989014
1714858322036826000,5.614826171875,7.394492149353027,5.017648220062256,-0.40940847992897034
1714858322046775600,5.624775634765625,7.571662902832031,5.2235493659973145,-0.031124621629714966
1714858322056725000,5.63472509765625,7.916428089141846,5.252279758453369,0.4189853072166443
1714858322066674700,5.6446748046875,8.304288864135742,5.185242176055908,0.7924807667732239
1714858322076624100,5.6546240234375,8.605957984924316,5.151723384857178,0.9026140570640564
1714858322086573600,5.664573486328125,8.81664752960205,5.2235493659973145,1.0127472877502441
1714858322096523000,5.67452294921875,8.763975143432617,5.209184169769287,1.0319008827209473
1714858322106472400,5.684472412109375,8.452729225158691,5.290587425231934,0.8307880163192749
1714858322116422000,5.694421875,8.237251281738281,5.252279758453369,0.7110779285430908
1714858322126371300,5.704371337890625,7.988254070281982,5.089474201202393,0.5674257874488831
1714858322136321000,5.714321044921875,7.8062944412231445,4.955399036407471,0.26096799969673157
1714858322146270500,5.7242705078125,7.447164535522461,4.854842662811279,-0.12689268589019775
1714858322156220000,5.734219970703125,7.389703750610352,4.945822238922119,-0.12210428714752197
1714858322166169300,5.74416943359375,7.135918140411377,4.9601874351501465,0.21308395266532898
1714858322176118800,5.754118896484375,6.867767810821533,5.108627796173096,0.12689268589019775
1714858322186068200,5.764068115234375,6.71453857421875,5.2666449546813965,0.14604631066322327
1714858322196018000,5.774017822265625,6.80551815032959,5.170876979827881,0.2801215946674347
1714858322205967000,5.783967041015625,7.0593037605285645,5.094262599945068,0.4668693244457245
1714858322215916500,5.79391650390625,7.4567413330078125,5.032013416290283,0.5482721924781799
1714858322225866000,5.803865966796875,7.643488883972168,4.9601874351501465,0.4668693244457245
1714858322235815400,5.8138154296875,7.753622055053711,5.032013416290283,0.3423708379268646
1714858322245764900,5.823764892578125,7.758410453796387,5.233126163482666,0.31842881441116333
1714858322255714300,5.83371435546875,7.495048522949219,5.304952621459961,0.4668693244457245
1714858322265663700,5.843663818359375,7.518990516662598,5.290587425231934,0.5961562395095825
1714858322275613200,5.85361328125,7.475894927978516,5.079897403717041,0.3998316824436188
1714858322285562600,5.863562744140625,7.648277282714844,4.998494625091553,0.304063618183136
1714858322295512000,5.873511962890625,8.122329711914062,5.075109004974365,0.4812345504760742
1714858322305461500,5.88346142578125,8.993818283081055,5.01285982131958,0.8068459630012512
1714858322315411000,5.893410888671875,9.678560256958008,4.653729438781738,0.730231523513794
1714858322325360400,5.9033603515625,9.649829864501953,4.471770286560059,0.15562310814857483
1714858322335309800,5.913309814453125,9.29069995880127,4.615422248840332,-0.2849099934101105
1714858322345259300,5.92325927734375,8.787917137145996,4.653729438781738,-0.3232172429561615
1714858322355208700,5.933208740234375,8.452729225158691,4.534019470214844,-0.15562310814857483
1714858322365158100,5.943158203125,8.289923667907715,4.438251495361328,-0.07900865375995636
1714858322375107600,5.953107666015625,8.361749649047852,4.241926670074463,-0.2561795711517334
1714858322385057000,5.96305712890625,8.591592788696289,3.8780081272125244,-0.7733271718025208
1714858322395006500,5.97300634765625,8.984241485595703,3.906738519668579,-1.0606313943862915
1714858322404955600,5.98295556640625,9.97065258026123,4.146158695220947,-0.21308395266532898
1714858322414905000,5.992905029296875,10.655394554138184,3.839700937271118,0.6967126727104187
1714858322424854500,6.0028544921875,10.736797332763672,3.839700937271118,0.8834604024887085
1714858322434804000,6.012803955078125,10.162189483642578,4.064755916595459,0.28969839215278625
1714858322444753400,6.02275341796875,9.046490669250488,3.8732197284698486,0.0071826050989329815
1714858322454702800,6.032702880859375,8.237251281738281,3.839700937271118,-0.1412578970193863
1714858322464652300,6.04265234375,7.772775650024414,3.8732197284698486,-0.3902548849582672
1714858322474601700,6.052601806640625,7.001842975616455,3.7391445636749268,-0.8930372595787048
1714858322484551200,6.06255126953125,6.293159008026123,3.5476083755493164,-1.4963760375976562
1714858322494500600,6.07250048828125,6.853402137756348,3.418321371078491,-1.0989385843276978
1714858322504450000,6.082449951171875,8.184578895568848,3.399167776107788,-0.3232172429561615
1714858322514399500,6.0923994140625,9.238027572631836,3.2363622188568115,0.19871874153614044
1714858322524349000,6.102348876953125,9.999382972717285,3.0352492332458496,0.2992752194404602
1714858322534298400,6.11229833984375,10.51174259185791,2.8197710514068604,0.06464344263076782
1714858322544247800,6.122247802734375,10.7511625289917,2.7479450702667236,-0.3280056416988373
1714858322554197200,6.132197265625,10.425551414489746,2.6138696670532227,-0.7015010714530945
1714858322564146700,6.142146728515625,10.162189483642578,2.498948097229004,-0.7398083209991455
1714858322574096100,6.15209619140625,10.712855339050293,2.5324668884277344,-0.4908113479614258
1714858322584045600,6.162045654296875,11.062409400939941,2.522890090942383,-0.5482721924781799
1714858322593995000,6.1719951171875,11.048044204711914,2.4127566814422607,-0.7350199222564697
1714858322603944200,6.181944091796875,11.349713325500488,2.340930700302124,-0.768538773059845
1714858322613893600,6.1918935546875,11.799822807312012,2.3505074977874756,-0.7398083209991455
1714858322623843000,6.201843017578125,11.603498458862305,2.3361423015594482,-0.7972691655158997
1714858322633792500,6.21179248046875,10.765527725219727,2.4845829010009766,-1.1994950771331787
1714858322643742000,6.221741943359375,9.807847023010254,2.565985679626465,-1.2713210582733154
1714858322653691400,6.23169140625,9.424775123596191,2.5947160720825195,-0.9313444495201111
1714858322663640800,6.241640869140625,9.841365814208984,2.6856956481933594,-0.5913678407669067
1714858322673590300,6.25159033203125,10.392032623291016,2.78625226020813,-0.629675030708313
1714858322683539700,6.261539794921875,10.593145370483398,2.7670986652374268,-0.6344634294509888
1714858322693489200,6.2714892578125,10.166977882385254,2.671330451965332,-0.7350199222564697
1714858322703438600,6.2814384765625,9.47265911102295,2.5324668884277344,-0.8834604024887085
1714858322713388000,6.291387939453125,9.089587211608887,2.62823486328125,-1.0414776802062988
1714858322723337500,6.30133740234375,9.204508781433105,2.6809072494506836,-1.1468225717544556
1714858322733287000,6.311286865234375,9.520543098449707,2.719214677810669,-0.8212111592292786
1714858322743236400,6.321236328125,10.052056312561035,2.8389246463775635,-0.3423708379268646
1714858322753185800,6.331185791015625,10.095151901245117,2.934692621231079,-0.42856210470199585
1714858322763135200,6.34113525390625,9.798270225524902,2.915539026260376,-1.0079588890075684
1714858322773084700,6.351084716796875,9.405621528625488,2.987365245819092,-1.3623007535934448
1714858322783034000,6.3610341796875,9.463082313537598,3.111863613128662,-1.3910311460494995
1714858322792983600,6.370983642578125,9.90361499786377,3.135805606842041,-1.137245774269104
1714858322802933000,6.38093310546875,10.344148635864258,3.183689594268799,-0.7637503147125244
1714858322812882700,6.390882568359375,10.76073932647705,3.265092611312866,-0.7254431247711182
1714858322822832000,6.40083203125,11.038467407226562,3.423109769821167,-0.3758896589279175
1714858322832781600,6.410781494140625,10.813411712646484,3.4135329723358154,0.1364694982767105
1714858322842731000,6.42073095703125,9.913191795349121,3.312976598739624,0.3902548849582672
1714858322852680400,6.430680419921875,8.821435928344727,3.6337995529174805,0.6488286852836609
1714858322862630000,6.4406298828125,8.107964515686035,4.246715068817139,0.5386953949928284
1714858322872579600,6.45057958984375,7.202955722808838,4.457405090332031,0.19393034279346466
1714858322882529000,6.460529052734375,6.455965042114258,4.457405090332031,-0.586579442024231
1714858322892478500,6.470478515625,6.250063419342041,4.668094635009766,-1.7932571172714233
1714858322902428000,6.480427978515625,6.288370609283447,4.984129428863525,-2.5498247146606445
1714858322912377300,6.49037744140625,6.551733016967773,5.367201805114746,-2.056619167327881
1714858322922326800,6.500326904296875,7.461529731750488,5.812523365020752,-0.6392518281936646
1714858322932276200,6.510276123046875,8.725667953491211,5.855618953704834,0.5913678407669067
1714858322942226000,6.520225830078125,9.281123161315918,5.309741020202637,0.6488286852836609
1714858322952175400,6.53017529296875,9.300276756286621,4.993706226348877,0.05027823522686958
1714858322962124800,6.540124755859375,9.26675796508789,5.008071422576904,-1.2186486721038818
1714858322972074200,6.55007421875,8.467094421386719,5.4677581787109375,-1.7932571172714233
1714858322982023700,6.560023681640625,7.399280548095703,5.697601318359375,-1.558625340461731
1714858322991973000,6.56997314453125,6.331466197967529,5.520430564880371,-1.482010841369629
1714858323001922800,6.5799228515625,5.6227827072143555,5.32889461517334,-1.8986018896102905
1714858323011872300,6.589872314453125,5.474342346191406,5.884349346160889,-1.6400281190872192
1714858323021821700,6.59982177734375,6.106411457061768,6.4398040771484375,-0.24181437492370605
1714858323031771100,6.609771240234375,6.738480567932129,6.344036102294922,1.1994950771331787
1714858323041720600,6.619720458984375,7.164648532867432,6.133346080780029,1.8315643072128296
1714858323051670000,6.629669921875,7.1885905265808105,5.960963726043701,1.534683346748352
1714858323061619500,6.639619384765625,7.083245754241943,6.099827289581299,1.3958195447921753
1714858323071569200,6.649569091796875,7.150283336639404,6.305728912353516,1.314416766166687
1714858323081518600,6.6595185546875,6.930016994476318,6.305728912353516,0.8547300100326538
1714858323091468000,6.669468017578125,6.039373874664307,6.152499675750732,0.5674257874488831
1714858323101417500,6.67941748046875,5.785588264465332,6.118980884552002,0.8164227604866028
1714858323111367000,6.689366943359375,6.427234649658203,5.707178115844727,1.3096283674240112
1714858323121316400,6.69931640625,7.59560489654541,5.2714338302612305,1.2665326595306396
1714858323131266000,6.70926611328125,9.046490669250488,5.108627796173096,0.2801215946674347
1714858323141215500,6.719215576171875,9.32421875,5.118204593658447,0.19871874153614044
1714858323151165000,6.7291650390625,9.285911560058594,4.768651008605957,0.0454898327589035
1714858323161114400,6.7391142578125,9.137471199035645,4.505289077758789,0.1843535304069519
1714858323171063800,6.749063720703125,9.692925453186035,4.1413702964782715,-0.5051765441894531
1714858323181013200,6.75901318359375,10.554838180541992,3.973776340484619,-1.1994950771331787
1714858323190962700,6.768962646484375,10.995370864868164,3.8588545322418213,-1.6974890232086182
1714858323200912100,6.778912109375,10.554838180541992,3.8492777347564697,-1.8746598958969116
1714858323210861600,6.788861572265625,10.301053047180176,4.04081392288208,-1.7884687185287476
1714858323220810800,6.798810791015625,10.195708274841309,3.801393747329712,-0.849941611289978
1714858323230760200,6.80876025390625,10.655394554138184,3.667318344116211,-0.0694318488240242
1714858323240709600,6.818709716796875,10.746374130249023,3.715202569961548,0.0454898327589035
1714858323250659000,6.8286591796875,10.47822380065918,3.7726633548736572,0.33758243918418884
1714858323260608500,6.8386083984375,10.176554679870605,3.796605348587036,0.6536170840263367
1714858323270558000,6.848557861328125,10.301053047180176,3.8827965259552,0.629675030708313
1714858323280507400,6.85850732421875,10.459070205688477,3.959411144256592,0.3663128614425659
1714858323290456800,6.868456787109375,10.358513832092285,3.8492777347564697,-0.12689268589019775
1714858323300406300,6.87840625,10.415974617004395,3.801393747329712,-0.5817909836769104
1714858323310355700,6.888355712890625,10.071209907531738,3.686472177505493,-1.2521674633026123
1714858323320305200,6.89830517578125,9.343372344970703,3.490147590637207,-1.644816517829895
1714858323330254600,6.908254638671875,8.84058952331543,3.2986114025115967,-1.8794482946395874
1714858323340204000,6.9182041015625,8.69214916229248,3.2842462062835693,-2.1475989818573
1714858323350153500,6.928153564453125,8.639476776123047,3.4135329723358154,-2.094926595687866
1714858323360103000,6.93810302734375,8.672995567321777,3.418321371078491,-1.601720929145813
1714858323370052400,6.94805224609375,8.893261909484863,3.3177649974823,-0.6919242739677429
1714858323380001800,6.958001708984375,9.429563522338867,3.447052001953125,0.1364694982767105
1714858323389951200,6.967951171875,10.066421508789062,3.782240152359009,-0.040701430290937424
1714858323399900700,6.977900634765625,10.435128211975098,4.079121112823486,-0.629675030708313
1714858323409850000,6.98785009765625,10.42076301574707,4.1413702964782715,-0.8403648138046265
1714858323419799300,6.99779931640625,9.946710586547852,3.973776340484619,-0.4908113479614258
1714858323429748700,7.007748779296875,9.35773754119873,3.8540661334991455,-0.4429273009300232
1714858323439698200,7.0176982421875,8.672995567321777,4.0312371253967285,-0.9313444495201111
1714858323449647600,7.027647705078125,8.012195587158203,4.213196277618408,-1.5298948287963867
1714858323459597000,7.03759716796875,7.293935298919678,4.371213912963867,-1.9273324012756348
1714858323469546500,7.04754638671875,6.695384979248047,4.787805080413818,-1.7262194156646729
1714858323479496000,7.057495849609375,6.609193801879883,5.41987419128418,-0.811634361743927
1714858323489445400,7.0674453125,7.265204906463623,5.8651957511901855,0.26096799969673157
1714858323499394800,7.077394775390625,7.916428089141846,5.913079738616943,0.7829039692878723
1714858323509344300,7.08734423828125,7.887697696685791,5.6640825271606445,0.7541735172271729
1714858323519293700,7.097293701171875,7.332242488861084,5.434239387512207,0.3423708379268646
1714858323529243100,7.1072431640625,6.819883346557617,5.482123374938965,-0.13168109953403473
1714858323539192600,7.117192626953125,6.786364555358887,5.716754913330078,-0.4908113479614258
1714858323549142000,7.12714208984375,7.001842975616455,6.028001308441162,-0.5195417404174805
1714858323559091500,7.137091552734375,7.044938564300537,6.157288074493408,-0.304063618183136
1714858323569041000,7.147041015625,6.867767810821533,6.004059314727783,-0.14604631066322327
1714858323578990300,7.156990234375,6.556521415710449,5.654505729675293,-0.31842881441116333
1714858323588939800,7.166939697265625,6.187814235687256,5.659294128417969,-0.7398083209991455
1714858323598889200,7.17688916015625,5.704185485839844,5.721543312072754,-1.2330138683319092
1714858323608838700,7.186838623046875,5.287594318389893,5.429450988769531,-1.9752163887023926
1714858323618787800,7.196787841796875,5.273229122161865,5.242702960968018,-2.5785553455352783
1714858323628737300,7.2067373046875,5.536591529846191,5.472546577453613,-2.3726539611816406
1714858323638686700,7.216686767578125,6.05852746963501,5.812523365020752,-1.2617442607879639
1714858323648636200,7.22663623046875,6.867767810821533,5.999270915985107,0.6584054827690125
1714858323658585600,7.236585693359375,7.705738067626953,6.176441669464111,3.043030261993408
1714858323668535000,7.24653515625,8.31865406036377,6.133346080780029,4.311957359313965
1714858323678484500,7.256484375,9.051279067993164,6.013636112213135,4.134786128997803
1714858323688434000,7.266433837890625,9.558850288391113,5.9322333335876465,3.339911460876465
1714858323698383400,7.27638330078125,9.434351921081543,5.573102951049805,2.406172752380371
1714858323708332800,7.286332763671875,9.036913871765137,5.01285982131958,1.2186486721038818
1714858323718282200,7.2962822265625,8.452729225158691,4.687248229980469,0.2753331959247589
1714858323728231700,7.306231689453125,8.1941556930542,4.524442672729492,-0.3471592366695404
1714858323738181000,7.31618115234375,8.347384452819824,4.414309501647949,-0.7876923680305481
1714858323748130600,7.326130615234375,8.835801124572754,4.443039894104004,-0.8020575642585754
1714858323758080000,7.336080078125,9.63067626953125,4.366425514221191,-0.38546648621559143
1714858323768029400,7.346029541015625,10.463858604431152,4.127005100250244,0.1843535304069519
1714858323777979000,7.355978759765625,11.076774597167969,4.050390720367432,0.8595184087753296
1714858323787928300,7.36592822265625,11.167754173278809,4.0312371253967285,1.3479355573654175
1714858323797877800,7.375877685546875,10.746374130249023,3.8588545322418213,1.2186486721038818
1714858323807827200,7.3858271484375,10.013748168945312,3.8780081272125244,0.7924807667732239
1714858323817776400,7.3957763671875,9.678560256958008,3.954622745513916,0.2322375625371933
1714858323827725800,7.405725830078125,9.563638687133789,3.7487213611602783,-0.38546648621559143
1714858323837675300,7.41567529296875,9.50617790222168,3.5619735717773438,-0.730231523513794
1714858323847624700,7.425624755859375,9.601945877075195,3.494935989379883,-0.9026140570640564
1714858323857574100,7.43557421875,9.884461402893066,3.5428199768066406,-1.01753568649292
1714858323867523600,7.445523681640625,9.946710586547852,3.50930118560791,-1.0558429956436157
1714858323877473000,7.45547314453125,9.491812705993652,3.0208840370178223,-1.2521674633026123
1714858323887422500,7.46542236328125,9.094375610351562,2.915539026260376,-1.3670891523361206
1714858323897372000,7.475371826171875,9.170989990234375,3.312976598739624,-1.4963760375976562
1714858323907321300,7.4853212890625,9.764751434326172,3.6721067428588867,-1.45806884765625
1714858323917270800,7.495270751953125,10.775104522705078,3.5045127868652344,-1.3192051649093628
1714858323927220200,7.50522021484375,11.091139793395996,2.9921536445617676,-1.113303780555725
1714858323937169700,7.515169677734375,10.411186218261719,2.6138696670532227,-1.45806884765625
1714858323947119000,7.525119140625,9.348160743713379,2.7766754627227783,-2.051830768585205
1714858323957068500,7.535068603515625,8.634688377380371,3.0974984169006348,-2.4588451385498047
1714858323967018000,7.54501806640625,8.313865661621094,3.3512837886810303,-2.4636335372924805
1714858323976967400,7.554967529296875,8.380903244018555,3.5045127868652344,-2.5067291259765625
1714858323986916900,7.564916748046875,8.419210433959961,3.3273417949676514,-2.612074136734009
1714858323996866300,7.5748662109375,7.973888874053955,3.1645359992980957,-2.410961151123047
1714858324006816000,7.58481591796875,7.552509307861328,3.3033998012542725,-2.3535003662109375
1714858324016765400,7.594765380859375,7.495048522949219,3.7439329624176025,-2.425326347351074
1714858324026715000,7.60471484375,7.68658447265625,4.155735492706299,-2.123656988143921
1714858324036664300,7.614664306640625,7.926004886627197,4.409521102905273,-1.577778935432434
1714858324046613800,7.62461376953125,8.189367294311523,4.486135482788086,-1.2665326595306396
1714858324056563200,7.634563232421875,8.53413200378418,4.3424835205078125,-1.2234370708465576
1714858324066512600,7.6445126953125,8.347384452819824,3.911526918411255,-1.6304513216018677
1714858324076462300,7.65446240234375,7.8062944412231445,3.60028076171875,-2.2194249629974365
1714858324086411800,7.664411865234375,7.241262912750244,3.7056257724761963,-2.7748796939849854
1714858324096361200,7.674361328125,6.800729751586914,3.839700937271118,-3.2968156337738037
1714858324106310700,7.684310546875,6.695384979248047,3.8349125385284424,-3.426102638244629
1714858324116260000,7.694260009765625,7.0353617668151855,3.820547342300415,-3.1435868740081787
1714858324126209500,7.70420947265625,7.949946880340576,3.7247793674468994,-2.9520506858825684
1714858324136159200,7.7141591796875,9.032125473022461,3.50930118560791,-2.980781078338623
1714858324146108700,7.724108642578125,9.520543098449707,3.3464953899383545,-2.980781078338623
1714858324156058000,7.73405810546875,9.563638687133789,3.3512837886810303,-2.937685489654541
1714858324166007600,7.744007568359375,9.520543098449707,3.4278981685638428,-2.875436305999756
1714858324175957000,7.75395703125,9.4822359085083,3.356072187423706,-2.889801502227783
1714858324185906400,7.763906494140625,9.285911560058594,3.2794578075408936,-2.9089550971984863
1714858324195856000,7.77385595703125,8.802282333374023,3.202843427658081,-3.1004912853240967
1714858324205805600,7.7838056640625,8.65863037109375,3.1453824043273926,-3.426102638244629
1714858324215755000,7.793755126953125,9.348160743713379,3.140594005584717,-3.5410242080688477
1714858324225704400,7.803704345703125,10.1382474899292,3.030460834503174,-3.3063924312591553
1714858324235654000,7.81365380859375,10.430339813232422,2.8628666400909424,-2.9903578758239746
1714858324245603300,7.823603271484375,10.516530990600586,2.8868086338043213,-2.80361008644104
1714858324255552800,7.833552734375,10.47822380065918,3.1070752143859863,-2.7700912952423096
1714858324265502200,7.843502197265625,10.358513832092285,3.2315738201141357,-2.8419175148010254
1714858324275452000,7.853451904296875,10.253169059753418,3.289034605026245,-2.8993782997131348
1714858324285401300,7.8634013671875,10.257957458496094,3.2603042125701904,-3.1196448802948
1714858324295350800,7.873350830078125,10.214861869812012,3.293823003768921,-3.3016040325164795
1714858324305300200,7.88330029296875,10.004171371459961,3.5236663818359375,-3.24414324760437
1714858324315249700,7.893249755859375,9.726444244384766,3.643376350402832,-3.0621838569641113
1714858324325199000,7.90319921875,9.601945877075195,3.7391445636749268,-2.6791117191314697
1714858324335148500,7.9131484375,9.477447509765625,3.8827965259552,-2.2864625453948975
1714858324345097700,7.92309765625,9.271546363830566,4.002506732940674,-1.965639591217041
1714858324355047200,7.933047119140625,8.792705535888672,4.150947093963623,-1.6496049165725708
1714858324364996600,7.94299658203125,8.289923667907715,4.241926670074463,-1.482010841369629
1714858324374946000,7.952946044921875,8.007407188415527,4.318541526794434,-1.5203180313110352
1714858324384895500,7.9628955078125,7.969100475311279,4.409521102905273,-1.7118542194366455
1714858324394845000,7.972844970703125,8.107964515686035,4.476558685302734,-1.8171991109848022
1714858324404794400,7.98279443359375,8.098387718200684,4.519654273986816,-1.601720929145813
1714858324414743800,7.992743896484375,7.734468460083008,4.596268653869629,-1.161187767982483
1714858324424693200,8.002693359375,7.360973358154297,4.821323871612549,-0.7110779285430908
1714858324434642700,8.012642578125,7.207744121551514,5.10383939743042,-0.5003881454467773
1714858324444592000,8.022592041015624,7.495048522949219,5.281010627746582,-0.42377370595932007
1714858324454541600,8.03254150390625,7.973888874053955,5.285799026489258,-0.24181437492370605
1714858324464491000,8.042490966796874,8.347384452819824,5.122992992401123,-0.16998831927776337
1714858324474440400,8.0524404296875,8.529343605041504,5.065532207489014,-0.2801215946674347
1714858324484390000,8.062389892578125,8.610746383666992,5.118204593658447,-0.33758243918418884
1714858324494339300,8.07233935546875,8.529343605041504,5.127781391143799,-0.42856210470199585
1714858324504288800,8.082288818359375,8.371326446533203,5.1134161949157715,-0.395043283700943
1714858324514238200,8.09223828125,8.299500465393066,4.97934103012085,-0.49559974670410156
1714858324524187600,8.102187744140625,8.304288864135742,4.802170276641846,-0.6919242739677429
1714858324534137000,8.11213720703125,8.122329711914062,4.644152641296387,-0.9600749015808105
1714858324544086300,8.122086181640626,8.05050277709961,4.581903457641602,-1.2425906658172607
1714858324554035700,8.13203564453125,7.9212164878845215,4.624999046325684,-1.4293384552001953
1714858324563985200,8.141985107421876,7.6099700927734375,4.658517837524414,-1.5394717454910278
1714858324573934600,8.1519345703125,7.12155294418335,4.8500542640686035,-1.3431471586227417
1714858324583884000,8.161884033203124,6.867767810821533,5.01285982131958,-1.0893617868423462
1714858324593833500,8.17183349609375,6.695384979248047,5.0032830238342285,-0.8930372595787048
1714858324603783000,8.181782958984375,6.455965042114258,4.969764232635498,-0.667982280254364
1714858324613732400,8.191732421875,5.986701488494873,4.92188024520874,-0.6200982332229614
1714858324623681800,8.201681884765625,5.704185485839844,5.0032830238342285,-0.7254431247711182
1714858324633631200,8.21163134765625,5.986701488494873,5.218760967254639,-0.7781155705451965
1714858324643580700,8.22158056640625,6.551733016967773,5.54437255859375,-0.40940847992897034
1714858324653530000,8.231530029296875,6.829460144042969,5.697601318359375,0.42377370595932007
1714858324663479600,8.2414794921875,6.704961776733398,5.395932197570801,1.036689281463623
1714858324673429000,8.251428955078126,6.398504257202148,4.744709014892578,0.950498104095459
1714858324683378400,8.26137841796875,5.756857872009277,4.241926670074463,0.7015010714530945
1714858324693328000,8.271327880859374,5.206191539764404,3.820547342300415,0.08379705995321274
1714858324703277300,8.28127734375,5.766434669494629,3.2363622188568115,-1.9033904075622559
1714858324713226800,8.291226806640625,7.06409215927124,3.5667619705200195,-3.9193081855773926
1714858324723176200,8.30117626953125,7.8062944412231445,3.5284547805786133,-4.220977783203125
1714858324733125600,8.311125732421875,7.983465671539307,2.5133132934570312,-0.4381389021873474
1714858324743074800,8.32107470703125,9.209297180175781,1.12467622756958,4.268861770629883
1714858324753024300,8.331024169921875,12.211626052856445,1.225232720375061,5.47075080871582
1714858324762973700,8.3409736328125,14.21796703338623,2.2212207317352295,3.7708675861358643
1714858324772923100,8.350923095703125,14.936226844787598,2.2403743267059326,2.7030537128448486
1714858324782872600,8.36087255859375,15.194801330566406,1.8142063617706299,2.3104045391082764
1714858324792822000,8.370822021484376,14.9984769821167,1.2970588207244873,1.7549498081207275
1714858324802771500,8.380771484375,14.476540565490723,0.961870551109314,0.8020575642585754
1714858324812721000,8.390720947265624,13.423091888427734,0.9762357473373413,-0.10295066982507706
1714858324822670300,8.40067041015625,12.312182426452637,1.5747861862182617,0.0454898327589035
1714858324832619800,8.410619873046874,10.746374130249023,1.4215573072433472,0.16998831927776337
1714858324842569200,8.4205693359375,9.305065155029297,1.2156559228897095,0.5195417404174805
1714858324852518700,8.4305185546875,8.969876289367676,1.3880383968353271,1.0606313943862915
1714858324862468000,8.440468017578125,9.97065258026123,1.6657658815383911,1.778891921043396
1714858324872417500,8.45041748046875,12.039243698120117,1.8620903491973877,2.229001760482788
1714858324882367000,8.460366943359375,13.715184211730957,1.977012038230896,2.300827741622925
1714858324892316400,8.47031640625,13.619416236877441,1.9003976583480835,2.2242133617401123
1714858324902265900,8.480265869140625,12.20683765411377,1.488594889640808,2.0183119773864746
1714858324912215300,8.49021533203125,11.320982933044434,0.8756792545318604,1.5059528350830078
1714858324922164700,8.500164794921876,11.474211692810059,0.8373720645904541,0.849941611289978
1714858324932114200,8.5101142578125,10.885237693786621,0.8708908557891846,0.5434837937355042
1714858324942063400,8.5200634765625,10.38724422454834,0.6889315247535706,-0.05506663769483566
1714858324952012800,8.5300126953125,10.799046516418457,0.3298012912273407,-0.9409212470054626
1714858324961962200,8.539962158203124,12.187684059143066,0.018555063754320145,-1.5825673341751099
1714858324971911700,8.54991162109375,13.423091888427734,-0.0293289702385664,-1.7932571172714233
1714858324981861000,8.559861083984375,14.112622261047363,-0.16819266974925995,-2.123656988143921
1714858324991810600,8.569810546875,13.08790397644043,-0.4076128304004669,-2.607285737991333
1714858325001760000,8.579760009765625,10.128670692443848,-0.3405751883983612,-2.985569477081299
1714858325011709400,8.58970947265625,8.582015991210938,0.3106476664543152,-3.339911460876465
1714858325021659000,8.599658935546875,7.8062944412231445,0.9570821523666382,-4.067748546600342
1714858325031608300,8.6096083984375,7.767987251281738,1.445499300956726,-4.479551315307617
1714858325041557800,8.619557861328126,8.945934295654297,2.163759708404541,-4.527435302734375
1714858325051507200,8.629507080078126,9.946710586547852,2.4175450801849365,-4.37420654296875
1714858325061456600,8.63945654296875,10.166977882385254,1.9913772344589233,-3.804386615753174
1714858325071406000,8.649406005859374,10.952275276184082,1.3210008144378662,-2.4013843536376953
1714858325081355500,8.65935546875,12.494141578674316,0.8565256595611572,-0.12210428714752197
1714858325091305000,8.669304931640625,13.107057571411133,0.5261258482933044,2.698265314102173
1714858325101254400,8.67925439453125,12.618639945983887,0.6266822814941406,4.627991676330566
1714858325111203800,8.689203857421875,12.436680793762207,1.6561890840530396,3.488351821899414
1714858325121153300,8.6991533203125,12.269086837768555,2.652176856994629,0.47165772318840027
1714858325131102700,8.709102783203125,10.78468132019043,2.9299042224884033,-1.0845733880996704
1714858325141052000,8.719052001953125,8.974664688110352,2.5755624771118164,-1.2473790645599365
1714858325151001300,8.72900146484375,6.934805393218994,2.034472942352295,-0.6105214357376099
1714858325160950800,8.73895068359375,4.387374401092529,1.9195512533187866,0.48602294921875
1714858325170900200,8.748900146484376,2.2469582557678223,2.3983914852142334,1.0989385843276978
1714858325180849700,8.758849609375,1.3658920526504517,3.442263603210449,0.26096799969673157
1714858325190799000,8.768799072265624,1.4520833492279053,4.414309501647949,-1.434126853942871
1714858325200748500,8.77874853515625,1.8112136125564575,4.8309006690979,-3.114856481552124
1714858325210698000,8.788697998046874,2.0219032764434814,4.610633850097656,-4.2544965744018555
1714858325220647400,8.7986474609375,1.6340426206588745,4.2515034675598145,-4.474762916564941
1714858325230596900,8.808596923828125,0.9157821536064148,4.265868663787842,-3.56017804145813
1714858325240546300,8.81854638671875,0.7481880187988281,4.4526166915893555,-2.410961151123047
1714858325250495700,8.828495849609375,1.988384485244751,4.438251495361328,-1.7118542194366455
1714858325260445200,8.838445068359375,4.320336818695068,4.016871929168701,-1.1659762859344482
1714858325270394600,8.84839453125,6.843825340270996,3.624222755432129,-1.094150185585022
1714858325280344000,8.858343994140625,9.999382972717285,3.868431329727173,-1.2617442607879639
1714858325290293500,8.86829345703125,12.70483112335205,4.553173065185547,-0.849941611289978
1714858325300243000,8.878242919921876,12.230779647827148,5.549160957336426,-0.43335050344467163
1714858325310192400,8.8881923828125,9.14225959777832,6.315305709838867,0.14604631066322327
1714858325320141800,8.898141845703124,7.1023993492126465,6.377554893493652,0.24660277366638184
1714858325330091000,8.908091064453124,5.459977149963379,6.458957672119141,-0.23702596127986908
1714858325340040400,8.91804052734375,5.407304763793945,6.090250492095947,-0.5291185975074768
1714858325349990000,8.927989990234375,6.3266777992248535,5.2666449546813965,-0.6153098344802856
1714858325359939300,8.937939208984375,7.4136457443237305,4.639364242553711,-1.290474772453308
1714858325369888800,8.947888671875,8.08402156829834,4.289810657501221,-2.1092917919158936
1714858325379838200,8.957838134765625,9.338583946228027,3.8827965259552,-3.3207578659057617
1714858325389787600,8.96778759765625,10.425551414489746,3.245939016342163,-4.402936935424805
1714858325399737000,8.977737060546875,10.961852073669434,2.9490580558776855,-4.388571739196777
1714858325409686500,8.9876865234375,11.08635139465332,3.154959201812744,-3.6320040225982666
1714858325419636000,8.997635986328126,11.742362022399902,3.6721067428588867,-2.6599581241607666
1714858325429585400,9.00758544921875,12.072762489318848,4.189254283905029,-1.6160861253738403
1714858325439534800,9.017534912109374,11.84770679473877,4.39036750793457,-1.1228805780410767
1714858325449484300,9.027484375,11.900379180908203,4.371213912963867,-1.1037269830703735
1714858325459433700,9.037433837890624,11.349713325500488,4.117428302764893,-1.3000515699386597
1714858325469383200,9.047383056640625,10.799046516418457,3.686472177505493,-2.363077163696289
1714858325479332600,9.05733251953125,10.593145370483398,3.5428199768066406,-3.598485231399536
1714858325489282000,9.067281982421875,11.201272964477539,4.217984676361084,-4.129997730255127
1714858325499231500,9.0772314453125,11.076774597167969,4.313753128051758,-3.7708675861358643
1714858325509181000,9.087180908203125,10.396821022033691,3.5715503692626953,-4.225766181945801
1714858325519130400,9.09713037109375,10.291476249694824,3.0113072395324707,-5.169081687927246
1714858325529079800,9.107079833984375,9.592369079589844,2.9011738300323486,-5.389348030090332
1714858325539029200,9.117029296875,8.605957984924316,3.265092611312866,-4.671087741851807
1714858325548979000,9.12697900390625,7.3418192863464355,3.7870285511016846,-3.49314022064209
1714858325558928400,9.136928466796874,6.4415998458862305,4.376002311706543,-2.5258827209472656
1714858325568877800,9.1468779296875,6.757634162902832,4.864419460296631,-2.4588451385498047
1714858325578827300,9.1568271484375,7.897274494171143,5.0463786125183105,-3.0813376903533936
1714858325588776700,9.166776611328125,9.424775123596191,4.826112270355225,-3.6942532062530518
1714858325598726100,9.17672607421875,10.435128211975098,4.57232666015625,-4.019864559173584
1714858325608675800,9.18667578125,10.14782428741455,4.361637115478516,-3.6942532062530518
1714858325618625300,9.196625244140625,9.027337074279785,4.203619480133057,-2.9233202934265137
1714858325628574700,9.20657470703125,7.81108283996582,4.313753128051758,-2.209848165512085
1714858325638524200,9.216524169921875,6.6379241943359375,4.682459831237793,-1.9081788063049316
1714858325648473600,9.2264736328125,5.8622026443481445,5.0463786125183105,-1.9129672050476074
1714858325658423000,9.236423095703126,5.843049049377441,5.218760967254639,-2.161964178085327
1714858325668372500,9.24637255859375,6.350619792938232,5.32889461517334,-2.1475989818573
1714858325678322200,9.256322265625,7.068880558013916,5.5108537673950195,-1.5921441316604614
1714858325688271600,9.266271728515624,7.729680061340332,5.659294128417969,-1.0558429956436157
1714858325698221000,9.276220947265625,7.983465671539307,5.6640825271606445,-0.9552865028381348
1714858325708170500,9.28617041015625,7.825448036193848,5.506065368652344,-1.137245774269104
1714858325718120000,9.296119873046875,7.432799339294434,5.386355400085449,-1.213860273361206
1714858325728069400,9.3060693359375,7.03057336807251,5.568314552307129,-0.9983820915222168
1714858325738019000,9.31601904296875,6.585251808166504,5.917868137359619,-0.6057330369949341
1714858325747968500,9.325968505859375,5.981913089752197,6.2386908531188965,-0.24181437492370605
1714858325757918000,9.33591796875,5.6658782958984375,6.463746070861816,-0.016759412363171577
1714858325767867400,9.345867431640626,6.312312602996826,6.645705223083496,0.026336219161748886
1714858325777816800,9.35581689453125,7.547720909118652,6.674435615539551,-0.10773907601833344
1714858325787766300,9.365766357421874,8.495824813842773,6.569090843200684,-0.10773907601833344
1714858325797715700,9.3757158203125,8.725667953491211,6.454169273376465,0.22744916379451752
1714858325807665200,9.3856650390625,8.275558471679688,6.382343292236328,0.4381389021873474
1714858325817614600,9.395614501953125,7.303512096405029,6.449380874633789,0.3902548849582672
1714858325827564000,9.40556396484375,6.3745622634887695,6.4398040771484375,-0.021547814831137657
1714858325837513500,9.415513427734375,5.857414245605469,6.118980884552002,-0.9409212470054626
1714858325847463000,9.425462890625,6.154295444488525,5.692812919616699,-1.9321208000183105
1714858325857412400,9.435412353515625,7.284358501434326,5.553949356079102,-2.4875755310058594
1714858325867361800,9.44536181640625,8.160636901855469,5.683236122131348,-2.2242133617401123
1714858325877311200,9.455311279296875,8.400056838989258,5.970540523529053,-1.280897855758667
1714858325887260700,9.4652607421875,8.237251281738281,6.214748859405518,-0.5626373887062073
1714858325897210000,9.475210205078126,7.969100475311279,6.205172061920166,-0.5003881454467773
1714858325907159300,9.4851591796875,7.6530656814575195,6.095038890838623,-0.7829039692878723
1714858325917108700,9.495108642578124,7.351396083831787,5.922656536102295,-1.0271124839782715
1714858325927058200,9.50505810546875,7.313088893890381,5.63535213470459,-1.3048399686813354
1714858325937007600,9.515007568359374,7.418434143066406,5.343259811401367,-1.7070658206939697
1714858325946957000,9.52495703125,7.370550155639648,5.166088581085205,-2.0183119773864746
1714858325956906500,9.534906494140625,7.538144111633301,5.166088581085205,-2.1523873805999756
1714858325966856000,9.54485595703125,8.08402156829834,5.175665378570557,-2.166752576828003
1714858325976805400,9.554805419921875,8.467094421386719,5.122992992401123,-1.9033904075622559
1714858325986754800,9.5647548828125,8.380903244018555,5.132569789886475,-1.5107412338256836
1714858325996704300,9.574704345703125,7.897274494171143,5.19481897354126,-1.3000515699386597
1714858326006653700,9.58465380859375,7.356184959411621,5.151723384857178,-1.414973258972168
1714858326016603100,9.59460302734375,7.073668956756592,5.1134161949157715,-1.6065093278884888
1714858326026552600,9.604552490234376,7.523778915405273,5.13735818862915,-1.7932571172714233
1714858326036502000,9.614501953125,8.428787231445312,5.094262599945068,-1.764526605606079
1714858326046451500,9.624451416015624,9.151836395263672,4.907515048980713,-1.601720929145813
1714858326056401000,9.63440087890625,9.4822359085083,4.8069586753845215,-1.3623007535934448
1714858326066350300,9.644350341796875,9.549273490905762,4.840477466583252,-1.2234370708465576
1714858326076299800,9.6542998046875,9.525331497192383,4.926668643951416,-1.2042834758758545
1714858326086249200,9.664249267578125,9.410409927368164,4.97934103012085,-1.1899182796478271
1714858326096198700,9.67419873046875,9.17577838897705,4.931457042694092,-1.2617442607879639
1714858326106147800,9.68414794921875,8.878896713256836,4.883573055267334,-1.400607943534851
1714858326116097300,9.69409716796875,8.677783966064453,4.715978622436523,-1.8267759084701538
1714858326126046700,9.704046630859375,8.60116958618164,4.514865875244141,-2.0805611610412598
1714858326135996200,9.71399609375,8.644265174865723,4.433463096618652,-1.9369091987609863
1714858326145945600,9.723945556640626,8.74960994720459,4.466981887817383,-1.6496049165725708
1714858326155895000,9.73389501953125,8.754398345947266,4.6058454513549805,-1.4101848602294922
1714858326165844500,9.743844482421874,8.821435928344727,4.682459831237793,-1.4628572463989258
1714858326175794000,9.7537939453125,8.912415504455566,4.687248229980469,-1.6496049165725708
1714858326185743400,9.763743408203124,8.989029884338379,4.715978622436523,-1.7118542194366455
1714858326195692800,9.77369287109375,9.051279067993164,4.672883033752441,-1.7549498081207275
1714858326205642200,9.783642333984375,9.295488357543945,4.510077476501465,-1.8171991109848022
1714858326215591700,9.793591796875,9.740809440612793,4.423886299133301,-1.802833914756775
1714858326225541000,9.803541015625,9.913191795349121,4.510077476501465,-1.6639702320098877
1714858326235490600,9.813490478515625,9.659406661987305,4.567538261413574,-1.5634137392044067
1714858326245440000,9.82343994140625,9.07522201538086,4.620210647583008,-1.5107412338256836
1714858326255389400,9.833389404296875,8.486248016357422,4.715978622436523,-1.5203180313110352
1714858326265339000,9.8433388671875,8.146271705627441,4.735132217407227,-1.659181833267212
1714858326275288300,9.853288330078126,7.983465671539307,4.711190223693848,-1.7932571172714233
1714858326285237800,9.86323779296875,7.897274494171143,4.735132217407227,-1.802833914756775
1714858326295187200,9.873187255859374,7.916428089141846,4.763862609863281,-1.7597382068634033
1714858326305136400,9.883136474609374,8.040925979614258,4.835689067840576,-1.7118542194366455
1714858326315085800,9.8930859375,8.040925979614258,4.912303447723389,-1.601720929145813
1714858326325035300,9.90303515625,7.858967304229736,5.0463786125183105,-1.381454348564148
1714858326334984700,9.912984619140625,7.538144111633301,5.1996073722839355,-1.1085153818130493
1714858326344934100,9.92293408203125,7.179013729095459,5.309741020202637,-0.7924807667732239
1714858326354883600,9.932883544921875,7.049726963043213,5.32889461517334,-0.6153098344802856
1714858326364833000,9.9428330078125,7.24605131149292,5.252279758453369,-0.6631938815116882
1714858326374782500,9.952782470703125,7.461529731750488,5.13735818862915,-0.8547300100326538
1714858326384732000,9.96273193359375,7.590816497802734,4.92188024520874,-1.1659762859344482
1714858326394681300,9.972681396484376,7.954735279083252,4.672883033752441,-1.434126853942871
1714858326404630800,9.982630859375,8.653841972351074,4.423886299133301,-1.702277421951294
1714858326414580200,9.992580322265624,9.434351921081543,4.280233860015869,-1.745373010635376
1714858326424529700,10.00252978515625,10.032901763916016,4.261080265045166,-1.6352397203445435
1714858326434479000,10.01247900390625,10.214861869812012,4.395155906677246,-1.338358759880066
1714858326444428500,10.022428466796875,10.128670692443848,4.534019470214844,-1.1180921792984009
1714858326454378000,10.0323779296875,9.798270225524902,4.620210647583008,-1.036689281463623
1714858326464327400,10.042327392578125,9.549273490905762,4.6920366287231445,-0.9409212470054626
1714858326474276900,10.05227685546875,9.850942611694336,4.653729438781738,-0.8738836050033569
1714858326484226300,10.062226318359375,10.176554679870605,4.438251495361328,-0.8738836050033569
1714858326494175500,10.072175537109375,10.075998306274414,4.189254283905029,-0.9026140570640564
1714858326504125000,10.082125,9.707290649414062,4.021660327911377,-1.1228805780410767
1714858326514074400,10.092074462890626,9.477447509765625,3.8971617221832275,-1.4772224426269531
1714858326524023800,10.10202392578125,9.333795547485352,3.782240152359009,-1.8124107122421265
1714858326533973200,10.11197314453125,9.041702270507812,3.715202569961548,-2.027888774871826
1714858326543922700,10.121922607421874,8.639476776123047,3.6960489749908447,-2.252943754196167
1714858326553872100,10.1318720703125,8.414422035217285,3.7008373737335205,-2.535459518432617
1714858326563821600,10.141821533203125,8.093599319458008,3.753509759902954,-2.5115175247192383
1714858326573771000,10.15177099609375,7.767987251281738,3.8540661334991455,-2.3247697353363037
1714858326583720400,10.161720458984375,7.787140846252441,3.959411144256592,-2.1380221843719482
1714858326593670000,10.171669921875,8.08402156829834,4.064755916595459,-1.8171991109848022
1714858326603619300,10.181619384765625,8.524555206298828,4.1413702964782715,-1.4724340438842773
1714858326613568800,10.19156884765625,8.869319915771484,4.136581897735596,-1.3431471586227417
1714858326623518200,10.201518310546875,9.132682800292969,4.026448726654053,-1.5203180313110352
1714858326633467600,10.211467529296876,9.281123161315918,3.8492777347564697,-1.8315643072128296
1714858326643417000,10.2214169921875,9.204508781433105,3.7008373737335205,-2.056619167327881
1714858326653366500,10.231366455078126,8.960299491882324,3.576338768005371,-2.1715409755706787
1714858326663316000,10.24131591796875,8.553285598754883,3.6385879516601562,-2.094926595687866
1714858326673265400,10.251265380859374,8.232462882995605,3.8971617221832275,-1.8555063009262085
1714858326683214800,10.26121484375,8.002618789672852,4.213196277618408,-1.5203180313110352
1714858326693164000,10.2711640625,7.897274494171143,4.399944305419922,-1.2617442607879639
1714858326703113500,10.281113525390625,7.715314865112305,4.486135482788086,-1.0797849893569946
1714858326713063000,10.29106298828125,7.518990516662598,4.524442672729492,-1.0462661981582642
1714858326723012400,10.301012451171875,7.346607685089111,4.553173065185547,-1.070208191871643
1714858326732961800,10.3109619140625,7.3418192863464355,4.553173065185547,-1.1085153818130493
1714858326742911200,10.3209111328125,7.461529731750488,4.466981887817383,-1.1516109704971313
1714858326752860700,10.330860595703125,7.767987251281738,4.308964729309082,-1.2713210582733154
1714858326762810000,10.34081005859375,8.467094421386719,4.16531229019165,-1.4437036514282227
1714858326772759600,10.350759521484376,9.123106002807617,4.127005100250244,-1.525106430053711
1714858326782709000,10.360708984375,9.467870712280273,4.1844658851623535,-1.4724340438842773
1714858326792658400,10.370658447265624,9.683348655700684,4.2993879318237305,-1.3670891523361206
1714858326802607900,10.38060791015625,9.81263542175293,4.399944305419922,-1.2425906658172607
1714858326812557300,10.390557373046875,9.678560256958008,4.419097900390625,-1.194706678390503
1714858326822506800,10.4005068359375,9.276334762573242,4.366425514221191,-1.2330138683319092
1714858326832456200,10.410456298828125,8.90762710571289,4.280233860015869,-1.338358759880066
1714858326842405600,10.420405517578125,8.701725959777832,4.22277307510376,-1.400607943534851
1714858326852355000,10.43035498046875,8.65863037109375,4.170100688934326,-1.501164436340332
1714858326862304500,10.440304443359375,8.811859130859375,4.0982747077941895,-1.6735470294952393
1714858326872254000,10.45025390625,8.989029884338379,4.036025524139404,-1.7980455160140991
1714858326882203400,10.460203369140626,9.147047996520996,3.9929299354553223,-1.8411411046981812
1714858326892152600,10.470152587890626,9.247604370117188,3.9881415367126465,-1.8363527059555054
1714858326902102000,10.48010205078125,9.23323917388916,4.002506732940674,-1.7693150043487549
1714858326912051500,10.490051513671874,9.123106002807617,4.050390720367432,-1.6400281190872192
1714858326922001000,10.5000009765625,9.094375610351562,4.122216701507568,-1.4293384552001953
1714858326931950300,10.509950439453124,9.156624794006348,4.1844658851623535,-1.2473790645599365
1714858326941899800,10.519899658203125,9.1662015914917,4.270657062530518,-1.0989385843276978
1714858326951849200,10.52984912109375,9.065644264221191,4.318541526794434,-1.0271124839782715
1714858326961798700,10.539798583984375,8.974664688110352,4.289810657501221,-1.0654197931289673
1714858326971748000,10.549748046875,8.898050308227539,4.203619480133057,-1.1516109704971313
1714858326981697500,10.559697509765625,8.859743118286133,4.055179119110107,-1.3287819623947144
1714858326991647000,10.56964697265625,8.869319915771484,3.8827965259552,-1.5873557329177856
1714858327001596400,10.579596435546875,8.921992301940918,3.753509759902954,-1.7884687185287476
1714858327011545900,10.5895458984375,8.898050308227539,3.7630865573883057,-1.8124107122421265
1714858327021495300,10.599495361328126,8.888473510742188,3.8301241397857666,-1.7549498081207275
1714858327031444700,10.60944482421875,8.912415504455566,3.906738519668579,-1.659181833267212
1714858327041394200,10.619394287109374,8.888473510742188,3.9450459480285645,-1.501164436340332
1714858327051343600,10.629343505859374,8.8070707321167,3.954622745513916,-1.338358759880066
1714858327061293000,10.63929296875,8.644265174865723,4.00729513168335,-1.1468225717544556
1714858327071242500,10.649242431640625,8.495824813842773,4.088697910308838,-1.0127472877502441
1714858327081192000,10.65919189453125,8.376114845275879,4.127005100250244,-0.9744400978088379
1714858327091141000,10.66914111328125,8.40963363647461,4.13179349899292,-1.0223240852355957
1714858327101090600,10.679090576171875,8.538920402526855,4.117428302764893,-1.1037269830703735
1714858327111040000,10.6890400390625,8.577227592468262,4.055179119110107,-1.1755530834197998
1714858327120989400,10.698989501953125,8.577227592468262,4.002506732940674,-1.2042834758758545
1714858327130939000,10.70893896484375,8.5101900100708,3.9881415367126465,-1.2330138683319092
1714858327140888300,10.718888427734376,8.328230857849121,3.9929299354553223,-1.2521674633026123
1714858327150837800,10.728837646484376,8.127118110656738,3.954622745513916,-1.2761094570159912
1714858327160787200,10.738787109375,8.060079574584961,3.930680751800537,-1.314416766166687
1714858327170736600,10.748736572265624,7.983465671539307,3.930680751800537,-1.3287819623947144
1714858327180686000,10.75868603515625,7.825448036193848,3.9211037158966064,-1.3670891523361206
1714858327190635500,10.768635498046875,7.863755702972412,3.959411144256592,-1.3718775510787964
1714858327200585000,10.7785849609375,8.361749649047852,4.04081392288208,-1.1994950771331787
1714858327210534400,10.788534423828125,8.735244750976562,4.203619480133057,-0.8451532125473022
1714858327220483800,10.79848388671875,8.74960994720459,4.39036750793457,-0.49559974670410156
1714858327230433300,10.808433349609375,8.802282333374023,4.5388078689575195,-0.3663128614425659
1714858327240382700,10.8183828125,8.945934295654297,4.5388078689575195,-0.33279404044151306
1714858327250332200,10.828332275390625,9.214085578918457,4.261080265045166,-0.40940847992897034
1714858327260281600,10.838281494140626,9.712079048156738,3.9450459480285645,-0.5578489899635315
1714858327270231000,10.84823095703125,10.320206642150879,3.8588545322418213,-0.6009446382522583
1714858327280180500,10.858180419921876,10.808623313903809,4.016871929168701,-0.6631938815116882
1714858327290129700,10.868129638671874,10.9091796875,4.127005100250244,-0.6057330369949341
1714858327300079000,10.8780791015625,10.492588996887207,4.155735492706299,-0.47644615173339844
1714858327310028500,10.888028564453125,9.9371337890625,4.136581897735596,-0.42377370595932007
1714858327319978000,10.89797802734375,9.750386238098145,4.213196277618408,-0.4668693244457245
1714858327329927400,10.907927490234375,10.023324966430664,4.457405090332031,-0.42856210470199585
1714858327339876900,10.917876953125,10.085575103759766,4.792593479156494,-0.17477671802043915
1714858327349826300,10.927826416015625,9.151836395263672,4.763862609863281,0.4572925269603729
1714858327359775700,10.937775634765625,8.730456352233887,4.634575843811035,0.8307880163192749
1714858327369725200,10.94772509765625,9.956287384033203,4.773439407348633,0.22744916379451752
1714858327379674600,10.957674560546875,10.430339813232422,4.6058454513549805,-0.5386953949928284
1714858327389624000,10.9676240234375,10.11430549621582,4.514865875244141,-0.8595184087753296
1714858327399573500,10.977573486328126,9.9371337890625,4.471770286560059,-1.0606313943862915
1714858327409523000,10.98752294921875,10.210073471069336,4.371213912963867,-1.194706678390503
1714858327419472400,10.997472412109374,10.334571838378906,4.352060317993164,-0.9409212470054626
1714858327429421800,11.007421875,9.898826599121094,4.639364242553711,-0.1843535304069519
1714858327439371300,11.017371337890625,9.046490669250488,5.185242176055908,0.5339069962501526
1714858327449320700,11.02732080078125,8.285135269165039,5.798158168792725,0.8978256583213806
1714858327459270100,11.037270263671875,7.4567413330078125,6.138134479522705,0.8643068075180054
1714858327469219600,11.047219482421875,6.8342485427856445,6.099827289581299,0.4381389021873474
1714858327479169000,11.0571689453125,6.843825340270996,5.692812919616699,-0.44771572947502136
1714858327489118200,11.0671181640625,7.078457355499268,5.166088581085205,-1.2665326595306396
1714858327499067600,11.077067626953125,7.480683326721191,4.878784656524658,-1.6543933153152466
1714858327509017000,11.08701708984375,7.265204906463623,4.519654273986816,-2.1715409755706787
1714858327518966500,11.096966552734376,6.197391033172607,4.179677486419678,-2.7988216876983643
1714858327528916000,11.106916015625,5.536591529846191,4.275445461273193,-3.157952070236206
1714858327538865400,11.116865478515624,6.0202202796936035,4.749497413635254,-3.1196448802948
1714858327548814800,11.12681494140625,6.197391033172607,5.400720596313477,-2.315192937850952
1714858327558764300,11.136764404296875,5.929240703582764,5.937021732330322,-1.0127472877502441
1714858327568713700,11.146713623046875,5.857414245605469,6.291363716125488,0.002394201699644327
1714858327578663200,11.1566630859375,5.881356239318848,6.468534469604492,0.14604631066322327
1714858327588612600,11.166612548828125,6.475118637084961,6.51641845703125,-0.2082955539226532
1714858327598562000,11.17656201171875,7.428010940551758,6.468534469604492,-0.3471592366695404
1714858327608511500,11.186511474609375,7.830236434936523,6.367978096008301,-0.38546648621559143
1714858327618461000,11.1964609375,7.619546890258789,6.348824501037598,-0.4189853072166443
1714858327628410400,11.206410400390626,7.159860134124756,6.147711277008057,-0.6727706789970398
1714858327638359800,11.21635986328125,6.7911529541015625,5.127781391143799,-1.5059528350830078
1714858327648309200,11.226309326171876,6.700173377990723,2.867655038833618,-3.6846764087677
1714858327658258700,11.2362587890625,7.490260124206543,1.7232266664505005,-5.614402770996094
1714858327668208000,11.2462080078125,9.118317604064941,2.2643163204193115,-5.509057998657227
1714858327678157300,11.2561572265625,9.645041465759277,3.356072187423706,-4.671087741851807
1714858327688106800,11.266106689453125,9.060855865478516,4.270657062530518,-3.866635799407959
1714858327698056200,11.27605615234375,8.10317611694336,4.912303447723389,-2.7940332889556885
1714858327708005600,11.286005615234375,7.696161270141602,5.410297393798828,-1.6687586307525635
1714858327717955000,11.295955078125,8.313865661621094,5.841253757476807,-1.1755530834197998
1714858327727904500,11.305904541015625,9.807847023010254,6.0423665046691895,-1.2234370708465576
1714858327737854000,11.31585400390625,11.431116104125977,5.841253757476807,-1.357512354850769
1714858327747803400,11.325803466796875,12.202049255371094,5.1565117835998535,-1.7070658206939697
1714858327757752800,11.3357529296875,11.809399604797363,4.337695121765137,-2.296039342880249
1714858327767702300,11.345702392578126,10.621875762939453,3.978564739227295,-3.1292216777801514
1714858327777651700,11.355651611328126,8.744821548461914,4.04081392288208,-3.6511576175689697
1714858327787601200,11.36560107421875,6.858190536499023,4.35684871673584,-3.7277719974517822
1714858327797550600,11.375550537109374,5.986701488494873,4.462193489074707,-3.9815573692321777
1714858327807500000,11.3855,6.523002624511719,4.25629186630249,-4.201824188232422
1714858327817449500,11.395449462890625,7.236474514007568,3.514089584350586,-4.383783340454102
1714858327827399000,11.40539892578125,7.897274494171143,3.3704373836517334,-4.1156325340271
1714858327837348400,11.415348388671875,9.070432662963867,3.7726633548736572,-2.765302896499634
1714858327847297800,11.4252978515625,10.210073471069336,4.366425514221191,-1.3000515699386597
1714858327857247200,11.435247314453125,11.244368553161621,4.687248229980469,-1.4437036514282227
1714858327867196700,11.44519677734375,10.075998306274414,5.252279758453369,-1.3431471586227417
1714858327877145900,11.455145751953125,8.31865406036377,5.573102951049805,-1.482010841369629
1714858327887095300,11.46509521484375,7.389703750610352,5.429450988769531,-1.9512743949890137
1714858327897044700,11.475044677734376,6.886921405792236,5.055955410003662,-2.58813214302063
1714858327906994200,11.484994140625,6.867767810821533,4.730343818664551,-3.138798475265503
1714858327916943600,11.494943603515624,7.346607685089111,4.505289077758789,-3.335123062133789
1714858327926893000,11.50489306640625,7.8541789054870605,4.347271919250488,-3.1962592601776123
1714858327936842500,11.514842529296875,7.820659637451172,4.399944305419922,-2.7748796939849854
1714858327946792000,11.5247919921875,6.9731125831604,4.620210647583008,-2.2625205516815186
1714858327956741400,11.534741455078125,6.810306549072266,4.715978622436523,-2.1092917919158936
1714858327966690800,11.54469091796875,5.713762283325195,5.2666449546813965,-1.7549498081207275
1714858327976640300,11.55464013671875,5.857414245605469,5.568314552307129,-1.6112977266311646
1714858327986589700,11.564589599609375,6.570886611938477,5.798158168792725,-1.5969325304031372
1714858327996539100,11.5745390625,6.695384979248047,5.702389717102051,-1.5634137392044067
1714858328006488600,11.584488525390626,7.260416507720947,5.415085792541504,-1.7693150043487549
1714858328016438000,11.59443798828125,7.887697696685791,5.0032830238342285,-2.013523578643799
1714858328026387500,11.604387451171876,7.782352447509766,4.783016681671143,-1.9560627937316895
1714858328036337000,11.6143369140625,7.150283336639404,5.261856555938721,-1.4963760375976562
1714858328046286300,11.624286376953124,6.628347396850586,5.6640825271606445,-1.2473790645599365
1714858328056235800,11.63423583984375,6.288370609283447,5.501276969909668,-1.4628572463989258
1714858328066185200,11.644185302734375,6.302735805511475,5.036801815032959,-2.0183119773864746
1714858328076134400,11.654134521484375,6.671442985534668,4.902726650238037,-2.300827741622925
1714858328086083800,11.664083740234375,7.801506042480469,4.97934103012085,-2.2625205516815186
1714858328096033300,11.674033203125,8.969876289367676,4.739920616149902,-1.9991583824157715
1714858328105982700,11.683982666015625,9.759963035583496,4.438251495361328,-1.6352397203445435
1714858328115932200,11.69393212890625,10.14782428741455,4.443039894104004,-1.338358759880066
1714858328125881600,11.703881591796875,10.047266960144043,4.591480255126953,-1.2665326595306396
1714858328135831000,11.7138310546875,10.047266960144043,4.620210647583008,-1.434126853942871
1714858328145780500,11.723780517578126,9.90361499786377,4.399944305419922,-1.5490485429763794
1714858328155730000,11.73372998046875,9.697713851928711,4.2993879318237305,-1.5107412338256836
1714858328165679400,11.743679443359374,9.458293914794922,4.466981887817383,-1.3192051649093628
1714858328175628800,11.75362890625,9.419986724853516,4.668094635009766,-1.1276689767837524
1714858328185578200,11.763578125,9.4822359085083,4.69682502746582,-0.9983820915222168
1714858328195527700,11.773527587890625,9.238027572631836,4.639364242553711,-0.9074024558067322
1714858328205477000,11.78347705078125,8.672995567321777,4.6489410400390625,-0.9696516990661621
1714858328215426600,11.793426513671875,8.064867973327637,4.687248229980469,-1.137245774269104
1714858328225376000,11.8033759765625,7.926004886627197,4.672883033752441,-1.2330138683319092
1714858328235325400,11.813325439453125,7.9451584815979,4.730343818664551,-1.0127472877502441
1714858328245275000,11.82327490234375,8.356961250305176,4.902726650238037,-0.5770025849342346
1714858328255224300,11.833224365234376,8.989029884338379,5.065532207489014,-0.1843535304069519
1714858328265173800,11.843173828125,9.10874080657959,5.027225017547607,-0.05985504388809204
1714858328275123000,11.853123046875,8.835801124572754,4.926668643951416,-0.24181437492370605
1714858328285072400,11.863072265625,8.256404876708984,4.845265865325928,-0.5195417404174805
1714858328295021800,11.873021728515624,7.839813232421875,4.840477466583252,-0.7206547260284424
1714858328304971300,11.88297119140625,7.969100475311279,4.88836145401001,-0.667982280254364
1714858328314920700,11.892920654296875,8.538920402526855,4.873996257781982,-0.49559974670410156
1714858328324870100,11.9028701171875,8.81664752960205,4.79738187789917,-0.4812345504760742
1714858328334819600,11.912819580078125,8.744821548461914,4.79738187789917,-0.6057330369949341
1714858328344769000,11.92276904296875,8.60116958618164,4.8500542640686035,-0.5626373887062073
1714858328354718500,11.932718505859375,8.419210433959961,4.902726650238037,-0.36152446269989014
1714858328364668000,11.94266796875,8.31865406036377,5.036801815032959,-0.17956513166427612
1714858328374617300,11.952617431640626,8.5101900100708,5.065532207489014,-0.15562310814857483
1714858328384566800,11.96256689453125,8.773551940917969,4.9601874351501465,-0.21787235140800476
1714858328394516200,11.97251611328125,9.008183479309082,4.864419460296631,-0.0694318488240242
1714858328404465700,11.982465576171874,9.63067626953125,4.783016681671143,0.40940847992897034
1714858328414415000,11.9924150390625,9.932345390319824,4.505289077758789,0.5817909836769104
1714858328424364500,12.002364501953124,9.568427085876465,4.241926670074463,-0.15562310814857483
1714858328434314000,12.01231396484375,9.118317604064941,3.973776340484619,-1.1324573755264282
1714858328444263400,12.022263427734375,8.740033149719238,3.7439329624176025,-1.86508309841156
1714858328454212900,12.032212890625,8.869319915771484,3.782240152359009,-2.315192937850952
1714858328464162300,12.042162353515625,9.391256332397461,3.820547342300415,-2.382230758666992
1714858328474111500,12.052111572265625,9.90361499786377,3.935469150543213,-2.0183119773864746
1714858328484061000,12.06206103515625,10.1382474899292,4.203619480133057,-1.2330138683319092
1714858328494010400,12.07201025390625,10.190919876098633,4.366425514221191,-0.3663128614425659
1714858328503959800,12.081959716796876,10.248380661010742,4.35684871673584,0.2992752194404602
1714858328513909200,12.0919091796875,10.497377395629883,4.265868663787842,0.6392518281936646
1714858328523858700,12.101858642578126,10.176554679870605,4.002506732940674,0.31842881441116333
1714858328533808000,12.11180810546875,9.285911560058594,3.60028076171875,-0.5722141861915588
1714858328543757600,12.121757568359374,8.491036415100098,3.3656489849090576,-1.3479355573654175
1714858328553707000,12.13170703125,8.242039680480957,3.2603042125701904,-1.7741034030914307
1714858328563656400,12.141656494140625,8.471882820129395,3.140594005584717,-1.922544002532959
1714858328573606000,12.15160595703125,8.93156909942627,3.0352492332458496,-1.7262194156646729
1714858328583555300,12.161555419921875,9.046490669250488,3.030460834503174,-1.4437036514282227
1714858328593504800,12.1715048828125,8.850166320800781,3.154959201812744,-1.237802267074585
1714858328603454200,12.1814541015625,8.50061321258545,3.3177649974823,-0.9217676520347595
1714858328613403600,12.191403564453125,8.055291175842285,3.6529531478881836,-0.5722141861915588
1714858328623353000,12.20135302734375,7.825448036193848,4.155735492706299,-0.4429273009300232
1714858328633302500,12.211302490234376,7.949946880340576,4.6058454513549805,-0.2753331959247589
1714858328643252000,12.221251953125,8.586804389953613,4.964975833892822,0.07422025501728058
1714858328653201400,12.231201416015624,9.209297180175781,5.218760967254639,0.35673606395721436
1714858328663150600,12.241150634765624,9.271546363830566,5.525218963623047,0.3998316824436188
1714858328673100000,12.25110009765625,9.080010414123535,5.956175327301025,0.5291185975074768
1714858328683049500,12.261049560546875,8.787917137145996,6.372766494750977,0.811634361743927
1714858328692999000,12.2709990234375,8.529343605041504,6.712742805480957,1.1180921792984009
1714858328702948400,12.2809482421875,8.514978408813477,6.971316814422607,1.4053963422775269
1714858328712897800,12.290897705078125,8.663418769836426,7.225101947784424,1.7262194156646729
1714858328722847200,12.30084716796875,8.811859130859375,7.4549455642700195,1.9081788063049316
1714858328732796700,12.310796630859375,8.495824813842773,7.555501937866211,1.9081788063049316
1714858328742746000,12.32074609375,8.079233169555664,7.589020729064941,1.7741034030914307
1714858328752695600,12.330695556640626,8.012195587158203,7.5650787353515625,1.4628572463989258
1714858328762645000,12.34064501953125,8.055291175842285,7.330447196960449,0.9888052940368652
1714858328772594400,12.350594482421876,8.122329711914062,6.9904704093933105,0.4668693244457245
1714858328782544000,12.3605439453125,8.218097686767578,6.73189640045166,0.1173158809542656
1714858328792493300,12.370493408203124,8.3521728515625,6.559514045715332,-0.031124621629714966
1714858328802442800,12.38044287109375,8.558073997497559,6.449380874633789,0.15083470940589905
1714858328812392200,12.39039208984375,8.955511093139648,6.348824501037598,0.5913678407669067
1714858328822341600,12.400341552734375,9.367314338684082,6.181230068206787,0.9265560507774353
1714858328832291000,12.410291015625,9.625887870788574,6.0184245109558105,0.8882488012313843
1714858328842240500,12.420240478515625,9.592369079589844,5.783792972564697,0.5817909836769104
1714858328852190000,12.43018994140625,9.396044731140137,5.549160957336426,0.33279404044151306
1714858328862139100,12.44013916015625,9.209297180175781,5.295375823974609,0.1843535304069519
1714858328872088600,12.450088623046875,8.878896713256836,5.060743808746338,0.031124621629714966
1714858328882038000,12.4600380859375,8.682572364807129,5.017648220062256,0.016759412363171577
1714858328891987500,12.469987548828126,8.854954719543457,5.084685802459717,0.3280056416988373
1714858328901937000,12.47993701171875,9.051279067993164,5.017648220062256,0.667982280254364
1714858328911886600,12.489886474609374,9.008183479309082,4.88836145401001,0.7876923680305481
1714858328921836000,12.4998359375,8.835801124572754,4.854842662811279,0.5578489899635315
1714858328931785500,12.509785400390625,8.562862396240234,4.854842662811279,0.2801215946674347
1714858328941735000,12.51973486328125,8.251616477966309,4.854842662811279,0.1364694982767105
1714858328951684400,12.529684326171875,8.002618789672852,4.878784656524658,0.05985504388809204
1714858328961633800,12.5396337890625,7.844601631164551,4.97934103012085,0.0933738648891449
1714858328971583500,12.54958349609375,7.978677272796631,5.084685802459717,0.17956513166427612
1714858328981533000,12.559532958984375,8.155848503112793,4.988917827606201,0.2944868206977844
1714858328991482400,12.569482421875,8.189367294311523,4.912303447723389,0.38067805767059326
1714858329001431800,12.579431884765626,8.270770072937012,5.055955410003662,0.4141969084739685
1714858329011381200,12.58938134765625,8.481459617614746,5.175665378570557,0.5051765441894531
1714858329021330700,12.59933056640625,8.400056838989258,5.108627796173096,0.6392518281936646
1714858329031280000,12.609280029296874,8.10317611694336,5.089474201202393,0.6153098344802856
1714858329041229800,12.619229736328125,7.8541789054870605,5.218760967254639,0.43335050344467163
1714858329051179300,12.62917919921875,7.791929244995117,5.319317817687988,0.22266076505184174
1714858329061128700,12.639128662109375,7.729680061340332,5.309741020202637,0.031124621629714966
1714858329071078100,12.649078125,7.466318130493164,5.400720596313477,-0.11252748221158981
1714858329081027600,12.659027587890625,7.327454090118408,5.462969779968262,-0.2992752194404602
1714858329090977000,12.66897705078125,7.605181694030762,5.477334976196289,-0.3280056416988373
1714858329100926700,12.6789267578125,8.146271705627441,5.386355400085449,-0.2561795711517334
1714858329110876200,12.688876220703126,8.471882820129395,5.319317817687988,-0.26575639843940735
1714858329120825600,12.69882568359375,8.481459617614746,5.371990203857422,-0.40462008118629456
1714858329130775000,12.708775146484374,8.313865661621094,5.458181381225586,-0.42377370595932007
1714858329140724500,12.718724365234374,7.993042469024658,5.45339298248291,-0.3519476354122162
1714858329150674000,12.728673828125,7.643488883972168,5.386355400085449,-0.31364041566848755
1714858329160623400,12.738623291015625,7.269993305206299,5.22833776473999,-0.5051765441894531
1714858329170572800,12.74857275390625,6.776787757873535,5.1565117835998535,-0.6536170840263367
1714858329180522200,12.758522216796875,6.551733016967773,5.534795761108398,-0.3423708379268646
1714858329190471400,12.768471435546875,6.647500991821289,5.941810131072998,0.17956513166427612
1714858329200420900,12.7784208984375,7.03057336807251,6.310517311096191,0.9217676520347595
1714858329210370300,12.788370361328125,7.547720909118652,6.305728912353516,1.3000515699386597
1714858329220319700,12.79831982421875,7.667430877685547,6.051943302154541,1.2234370708465576
1714858329230269000,12.80826904296875,7.3418192863464355,5.960963726043701,0.9074024558067322
1714858329240218400,12.81821826171875,6.9491705894470215,5.999270915985107,0.586579442024231
1714858329250167800,12.828167724609376,6.738480567932129,5.95138692855835,0.22266076505184174
1714858329260117200,12.8381171875,6.800729751586914,5.798158168792725,-0.12210428714752197
1714858329270066400,12.84806640625,7.078457355499268,5.793369770050049,-0.17956513166427612
1714858329280016000,12.858015869140624,7.533355712890625,6.037578105926514,0.14604631066322327
1714858329289965300,12.86796533203125,7.796717643737793,5.980117321014404,0.2513911724090576
1714858329299914800,12.877914794921875,7.993042469024658,5.707178115844727,0.43335050344467163
1714858329309864000,12.887864013671875,7.7631988525390625,5.458181381225586,0.6775590777397156
1714858329319813400,12.8978134765625,7.442376136779785,5.606621742248535,0.524330198764801
1714858329329762800,12.9077626953125,6.848613739013672,5.793369770050049,0.4668693244457245
1714858329339712000,12.9177119140625,6.647500991821289,5.611410140991211,-0.3663128614425659
1714858329349661400,12.927661376953125,6.575675010681152,5.242702960968018,-0.9696516990661621
1714858329359611000,12.93761083984375,7.078457355499268,4.529231071472168,-0.40940847992897034
1714858329369560300,12.947560302734376,8.175002098083496,3.959411144256592,0.3902548849582672
