time,seconds_elapsed,z,y,x
1714858351152827100,0.1478271484375,-0.017024993896484375,0.008467912673950195,0.02127452939748764
1714858351162776600,0.157776611328125,-0.0239410400390625,0.02040715515613556,0.032068438827991486
1714858351172726000,0.16772607421875,-0.013058662414550781,0.018506430089473724,0.029145710170269012
1714858351182675500,0.177675537109375,-0.02074909210205078,0.012529917061328888,0.03109944611787796
1714858351192625000,0.187625,-0.023572921752929688,0.024781011044979095,0.019860178232192993
1714858351202574300,0.19757421875,-0.01744365692138672,0.014071770012378693,0.00944066047668457
1714858351212523800,0.207523681640625,-0.011812210083007812,0.00871799886226654,0.008802913129329681
1714858351222473200,0.21747314453125,-0.015564918518066406,-0.005240499973297119,0.003653682768344879
1714858351232422700,0.227422607421875,-0.014651298522949219,-0.00037063658237457275,-0.0011776015162467957
1714858351242372000,0.2373720703125,-0.01836109161376953,0.0042282938957214355,-0.0011192113161087036
1714858351252321500,0.247321533203125,-0.012857437133789062,-0.0005779564380645752,0.008107230067253113
1714858351262271000,0.25727099609375,-0.0076656341552734375,0.003952480852603912,0.0031450986862182617
1714858351272220400,0.267220458984375,-0.011861801147460938,0.003716707229614258,-0.0016759485006332397
1714858351282169900,0.277169921875,-0.011322975158691406,0.008071750402450562,0.007534630596637726
1714858351292119300,0.287119384765625,-0.010831832885742188,0.0077765583992004395,0.0026189759373664856
1714858351302068700,0.29706884765625,-0.014969825744628906,0.0257602259516716,-0.0020869076251983643
1714858351312018200,0.30701806640625,-0.009774208068847656,0.0062935128808021545,-0.015802688896656036
1714858351321967600,0.316967529296875,-0.004795074462890625,0.010711707174777985,-0.005994327366352081
1714858351331916800,0.326916748046875,-0.0046176910400390625,0.0010457038879394531,-0.010390527546405792
1714858351341866200,0.3368662109375,-0.009070396423339844,-0.008273646235466003,-0.005409210920333862
1714858351351815700,0.346815673828125,0.0004892349243164062,-0.012658931314945221,-0.014476433396339417
1714858351361765000,0.35676513671875,-0.0041561126708984375,-0.012284316122531891,-0.00011469423770904541
1714858351371714600,0.366714599609375,-0.0040225982666015625,-0.002667568624019623,0.00441104918718338
1714858351381664000,0.3766640625,-0.0038976669311523438,-0.00263165682554245,0.008799955248832703
1714858351391613400,0.386613525390625,-0.003780364990234375,-0.0026003271341323853,0.003777116537094116
1714858351401563000,0.39656298828125,-0.012964248657226562,0.0020752549171447754,0.0036580488085746765
1714858351411512300,0.40651220703125,-0.017246246337890625,0.001968391239643097,0.012744396924972534
1714858351421461800,0.416461669921875,-0.012112617492675781,0.006520576775074005,0.007621824741363525
1714858351431411500,0.426411376953125,-0.0024671554565429688,0.02027364820241928,0.002749621868133545
1714858351441361000,0.43636083984375,-0.011728286743164062,0.010367661714553833,0.0025647059082984924
1714858351451310300,0.446310302734375,-0.0020961761474609375,0.010053187608718872,-0.011505939066410065
1714858351461259800,0.456259765625,0.0026235580444335938,0.009753197431564331,-0.01600048691034317
1714858351471209200,0.466209228515625,0.0025587081909179688,0.009466618299484253,-0.0063805654644966125
1714858351481158700,0.47615869140625,-0.0021772384643554688,0.00462370365858078,0.007786490023136139
1714858351491108000,0.486108154296875,-0.011481285095214844,0.004573076963424683,0.012274414300918579
1714858351501057800,0.496057861328125,-0.011219024658203125,0.004314646124839783,0.002628244459629059
1714858351511007200,0.50600732421875,-0.01565265655517578,-0.0005120337009429932,0.016502000391483307
1714858351520956700,0.515956787109375,-0.0012598037719726562,0.0041345879435539246,0.011450886726379395
1714858351530906000,0.525906005859375,-0.0012331008911132812,0.0038928240537643433,0.011094130575656891
1714858351540855600,0.53585546875,0.0034809112548828125,0.003762856125831604,0.015543580055236816
1714858351550805000,0.545804931640625,0.0034093856811523438,-0.0009475350379943848,0.010527610778808594
1714858351560754700,0.555754638671875,-0.0060443878173828125,0.0037151575088500977,0.005616344511508942
1714858351570704100,0.5657041015625,-0.0106201171875,0.0035933926701545715,0.005498141050338745
1714858351580653600,0.575653564453125,-0.005719184875488281,0.0034753531217575073,0.00538431853055954
1714858351590603000,0.58560302734375,0.0037841796875,0.012862153351306915,0.0005757734179496765
1714858351600552400,0.595552490234375,-0.005686759948730469,0.003282599151134491,-0.004141904413700104
1714858351610502000,0.605501953125,0.0038194656372070312,-0.010929189622402191,-0.008775219321250916
1714858351620451300,0.615451416015625,-0.0009517669677734375,-0.001376330852508545,-0.022734493017196655
1714858351630401000,0.625401123046875,-0.0009355545043945312,0.003409452736377716,-0.022343747317790985
1714858351640350500,0.6353505859375,-0.010331153869628906,-0.001403309404850006,-0.017259962856769562
1714858351650300000,0.6452998046875,-0.0054492950439453125,-0.00142766535282135,-0.012373797595500946
1714858351660249300,0.655249267578125,-0.014776229858398438,-0.006160624325275421,-0.01228121668100357
1714858351670198800,0.66519873046875,-0.00040435791015625,0.0033101886510849,-0.007376037538051605
1714858351680148200,0.675148193359375,0.00431060791015625,-0.0062103271484375,0.006865382194519043
1714858351690098000,0.685097900390625,-0.005177497863769531,-0.0015527307987213135,0.0020350664854049683
1714858351700047400,0.69504736328125,0.00432586669921875,-0.0015750005841255188,0.011411041021347046
1714858351709996800,0.704996826171875,-0.009874343872070312,0.003218047320842743,0.02523300051689148
1714858351719946200,0.7149462890625,-0.00029277801513671875,0.0078248530626297,0.02480515092611313
1714858351729895700,0.724895751953125,-0.004996299743652344,0.002937696874141693,0.019675835967063904
1714858351739845000,0.73484521484375,-0.014330863952636719,0.007654629647731781,0.014631204307079315
1714858351749794600,0.744794677734375,-0.004675865173339844,0.002876661717891693,-0.004454337060451508
1714858351759744300,0.754744140625,0.000110626220703125,-0.011346124112606049,-0.013805396854877472
1714858351769693700,0.764693603515625,0.00010776519775390625,-0.006390228867530823,-0.02299979329109192
1714858351779643100,0.77464306640625,-0.014019966125488281,-0.006331875920295715,-0.027332358062267303
1714858351789592600,0.784592529296875,-0.018495559692382812,-0.0015649795532226562,-0.022281043231487274
1714858351799542000,0.7945419921875,0.0006465911865234375,-0.0015870481729507446,-0.021916992962360382
1714858351809491500,0.804491455078125,-0.00878143310546875,-0.0016087442636489868,-0.012141816318035126
1714858351819441200,0.814441162109375,-0.008635520935058594,0.007788032293319702,0.01159704476594925
1714858351829390600,0.824390625,-0.0037832260131835938,0.007609166204929352,0.02552144229412079
1714858351839340000,0.834340087890625,-0.0037221908569335938,0.0028319507837295532,0.024982452392578125
1714858351849289500,0.84428955078125,0.0010480880737304688,0.007444292306900024,0.024557970464229584
1714858351859239000,0.854239013671875,0.0010309219360351562,-0.002146020531654358,0.010014764964580536
1714858351869188400,0.864188232421875,0.0057220458984375,0.007257893681526184,0.009839735925197601
1714858351879137800,0.8741376953125,-0.0037908554077148438,-0.0023284107446670532,0.00025124847888946533
1714858351889087500,0.88408740234375,0.0056896209716796875,-0.007047250866889954,-0.004469655454158783
1714858351899037000,0.894036865234375,0.0008859634399414062,0.002439253032207489,-0.00911104679107666
1714858351908986400,0.903986328125,-0.008544921875,0.00695270299911499,0.0004507005214691162
1714858351918935800,0.913935791015625,-0.008402824401855469,0.006787784397602081,-0.00427352637052536
1714858351928885200,0.92388525390625,-0.0035552978515625,0.016042806208133698,0.005100436508655548
1714858351938834700,0.933834716796875,-0.008205413818359375,0.015726380050182343,0.004900969564914703
1714858351948784400,0.943784423828125,0.0013475418090820312,-0.003312818706035614,0.014228366315364838
1714858351958733800,0.95373388671875,-0.008092880249023438,-0.012617506086826324,0.004565909504890442
1714858351968683300,0.963683349609375,0.0014591217041015625,-0.01716575026512146,0.013898059725761414
1714858351978632700,0.9736328125,0.0014333724975585938,-0.02153095230460167,0.004134781658649445
1714858351988582100,0.98358203125,0.0014095306396484375,-0.011803053319454193,0.004058577120304108
1714858351998531600,0.993531494140625,-0.003322601318359375,-0.006945885717868805,0.008692234754562378
1714858352008481000,1.00348095703125,-0.0032672882080078125,-0.016189128160476685,-0.0007707923650741577
1714858352018430700,1.0134306640625,-0.0032129287719726562,-0.00655025988817215,0.008651956915855408
1714858352028380200,1.023380126953125,-0.0031595230102539062,0.0029270723462104797,-0.0009175464510917664
1714858352038329600,1.03332958984375,-0.007816314697265625,0.002934694290161133,-0.0056197792291641235
1714858352048279000,1.043279052734375,-0.0029773712158203125,0.0028358623385429382,-0.010243639349937439
1714858352058228500,1.053228515625,-0.007636070251464844,0.002738669514656067,-0.010081842541694641
1714858352068178000,1.063177978515625,-0.012218475341796875,0.002750314772129059,-0.005213327705860138
1714858352078127600,1.073127685546875,-0.0073070526123046875,0.007470361888408661,-0.009843140840530396
1714858352088077000,1.0830771484375,-0.0024766921997070312,-0.006829872727394104,-0.0191052183508873
1714858352098026500,1.093026611328125,-0.011852264404296875,-0.006765082478523254,-0.02821210026741028
1714858352107976000,1.102975830078125,-0.006946563720703125,-0.0019927769899368286,-0.01833280920982361
1714858352117925400,1.11292529296875,-0.011539459228515625,0.02153528481721878,0.0007998347282409668
1714858352127874800,1.122874755859375,-0.02076435089111328,0.016419626772403717,0.010196402668952942
1714858352137824300,1.13282421875,-0.011002540588378906,0.016204148530960083,0.0240386500954628
1714858352147774000,1.14277392578125,0.0033054351806640625,0.006574168801307678,0.014212697744369507
1714858352157723400,1.152723388671875,-0.0014581680297851562,0.0017078742384910583,0.018677130341529846
1714858352167672800,1.1626728515625,-0.0014333724975585938,-0.007892236113548279,0.008941367268562317
1714858352177622300,1.172622314453125,-0.006117820739746094,-0.012519210577011108,-0.005342394113540649
1714858352187571700,1.18257177734375,-0.010725021362304688,-0.01225416362285614,0.004154890775680542
1714858352197521200,1.192521240234375,-0.0058383941650390625,-0.016700349748134613,-0.0006302297115325928
1714858352207470600,1.202470703125,-0.005741119384765625,-0.01647103577852249,0.00408075749874115
1714858352217420300,1.212420166015625,-0.0009365081787109375,-0.01624464988708496,0.018131248652935028
1714858352227369700,1.22236962890625,-0.0009212493896484375,-0.0066048577427864075,0.008404582738876343
1714858352237319200,1.232319091796875,-0.0009059906005859375,0.0028742775321006775,0.008257217705249786
1714858352247268600,1.2422685546875,0.0038175582885742188,0.007486820220947266,-0.0060134828090667725
1714858352257218000,1.252218017578125,-0.010372161865234375,0.01202072948217392,-0.005922190845012665
1714858352267167500,1.26216748046875,-0.0054912567138671875,0.011877670884132385,-0.010646499693393707
1714858352277117200,1.2721171875,-0.0148162841796875,0.01623297482728958,-0.005768574774265289
1714858352287066600,1.282066650390625,-0.00044345855712890625,0.011204808950424194,-0.015097737312316895
1714858352297016000,1.29201611328125,-0.005145072937011719,0.0156785249710083,-0.02427057921886444
1714858352306965500,1.301965576171875,-0.00035190582275390625,0.006059087812900543,-0.014455325901508331
1714858352316915000,1.3119150390625,-0.00034618377685546875,-0.0034009143710136414,0.000010401010513305664
1714858352326864400,1.321864501953125,-0.00034046173095703125,0.010732531547546387,0.00941929966211319
1714858352336813800,1.331813720703125,-0.000335693359375,0.010505527257919312,0.013857319951057434
1714858352346763500,1.341763427734375,-0.005039215087890625,0.005572818219661713,0.018220528960227966
1714858352356713000,1.351712890625,-0.004955291748046875,0.0007232129573822021,0.022618167102336884
1714858352366662400,1.361662353515625,0.004543304443359375,0.0006630271673202515,0.01741901785135269
1714858352376611800,1.37161181640625,-0.0002422332763671875,-0.01341564953327179,0.012306518852710724
1714858352386561300,1.381561279296875,-0.004947662353515625,-0.013133890926837921,0.002676926553249359
1714858352396510700,1.3915107421875,0.004550933837890625,-0.012964002788066864,-0.0163164883852005
1714858352406460400,1.40146044921875,-0.0049419403076171875,-0.017505548894405365,-0.016052663326263428
1714858352416409900,1.411409912109375,-0.00485992431640625,-0.017369098961353302,-0.01589953899383545
1714858352426359300,1.421359375,-0.004778861999511719,-0.012419149279594421,-0.01564183086156845
1714858352436308700,1.431308837890625,-0.004698753356933594,-0.002843104302883148,-0.01067981868982315
1714858352446258200,1.441258056640625,-0.004620552062988281,0.006573334336280823,-0.0010919123888015747
1714858352456207600,1.45120751953125,0.000164031982421875,0.01593824476003647,0.0036267638206481934
1714858352466157000,1.461156982421875,0.004868507385253906,0.015624471008777618,0.008161336183547974
1714858352476106800,1.471106689453125,0.004787445068359375,0.015315048396587372,0.026851583272218704
1714858352486056200,1.48105615234375,-0.0047092437744140625,0.015010781586170197,0.021687336266040802
1714858352496005600,1.491005615234375,0.00007915496826171875,0.009896703064441681,0.002483367919921875
1714858352505955000,1.500955078125,0.0000782012939453125,0.004975020885467529,-0.0022738948464393616
1714858352515904500,1.510904541015625,0.004784584045410156,-0.009176395833492279,-0.006952717900276184
1714858352525854000,1.52085400390625,0.004704475402832031,-0.009071588516235352,-0.0021355226635932922
1714858352535803600,1.5308037109375,0.004626274108886719,-0.01838572323322296,-0.01623300462961197
1714858352545753000,1.540753173828125,-0.00015926361083984375,-0.013418830931186676,-0.006552547216415405
1714858352555702500,1.55070263671875,-0.009573936462402344,-0.008534729480743408,-0.006450623273849487
1714858352565652000,1.56065185546875,0.0000019073486328125,0.00108376145362854,-0.0016409605741500854
1714858352575601400,1.570601318359375,-0.014124870300292969,-0.003585614264011383,0.003086864948272705
1714858352585550800,1.58055078125,0.00023555755615234375,0.0012400299310684204,-0.0016812905669212341
1714858352595500300,1.590500244140625,-0.004477500915527344,0.0011694729328155518,-0.0064771175384521484
1714858352605450000,1.600449951171875,0.00030517578125,0.0059176161885261536,-0.006375610828399658
1714858352615399400,1.6103994140625,0.005007743835449219,0.010585755109786987,-0.010985225439071655
1714858352625348900,1.620348876953125,-0.0092010498046875,0.010361194610595703,0.00802496075630188
1714858352635298300,1.63029833984375,-0.009047508239746094,0.010139495134353638,0.012591682374477386
1714858352645247700,1.640247802734375,0.0005197525024414062,0.005320064723491669,0.01708313077688217
1714858352655197200,1.650197265625,0.00051116943359375,-0.008942529559135437,0.016791127622127533
1714858352665147000,1.66014697265625,-0.0042057037353515625,-0.013551086187362671,0.0117945596575737
1714858352675096300,1.670096435546875,0.00057220458984375,-0.008559353649616241,0.011589854955673218
1714858352685045800,1.680045654296875,0.0005617141723632812,-0.013067997992038727,0.0066799744963645935
1714858352694995200,1.6899951171875,-0.008864402770996094,-0.012898333370685577,-0.002855829894542694
1714858352704944600,1.699944580078125,-0.008716583251953125,-0.02214868739247322,-0.007524117827415466
1714858352714894000,1.70989404296875,-0.0038623809814453125,-0.021828543394804,-0.02153262495994568
1714858352724843500,1.719843505859375,-0.00850677490234375,0.006632424890995026,-0.007161527872085571
1714858352734793200,1.729793212890625,0.0010509490966796875,0.011288642883300781,0.007076337933540344
1714858352744742700,1.73974267578125,-0.0036754608154296875,0.006343774497509003,0.011659719049930573
1714858352754692000,1.749692138671875,-0.008321762084960938,0.025023438036441803,0.030397936701774597
1714858352764641500,1.7596416015625,0.0012340545654296875,0.01514105498790741,0.02517542615532875
1714858352774591000,1.769591064453125,0.005921363830566406,0.019653737545013428,0.01532968133687973
1714858352784540400,1.77954052734375,0.0058231353759765625,0.02398492395877838,0.005648024380207062
1714858352794490000,1.789489990234375,-0.0036916732788085938,0.004701793193817139,-0.008686326444149017
1714858352804439600,1.799439453125,0.0010776519775390625,-0.009551353752613068,-0.01336456835269928
1714858352814389000,1.809388916015625,-0.0036497116088867188,-0.014042600989341736,-0.022566303610801697
1714858352824338400,1.81933837890625,0.0011186599731445312,-0.018458999693393707,-0.036323271691799164
1714858352834287900,1.829287841796875,-0.00360870361328125,-0.02761666476726532,-0.02159937471151352
1714858352844237300,1.8392373046875,-0.0035495758056640625,-0.012972436845302582,-0.007120877504348755
1714858352854186800,1.849186767578125,-0.0034914016723632812,-0.007989481091499329,0.01171863079071045
1714858352864136400,1.859136474609375,-0.0034332275390625,-0.007904447615146637,0.025641825050115585
1714858352874086000,1.8690859375,-0.003376007080078125,0.0015963613986968994,0.02520718052983284
1714858352884035300,1.879035400390625,0.010805130004882812,0.006336502730846405,0.024779777973890305
1714858352893984800,1.88898486328125,-0.0035009384155273438,0.0061819106340408325,0.005524277687072754
1714858352903934200,1.898934326171875,0.005974769592285156,0.006030745804309845,0.0007163211703300476
1714858352913883600,1.908883544921875,-0.008251190185546875,0.010696984827518463,-0.004011489450931549
1714858352923833300,1.918833251953125,0.0013027191162109375,0.015284590423107147,-0.003952749073505402
1714858352933782800,1.92878271484375,-0.008136749267578125,0.010273128747940063,-0.004000432789325714
1714858352943732200,1.938732177734375,0.0014162063598632812,0.01005292683839798,-0.003941886126995087
1714858352953681700,1.948681640625,-0.0033159255981445312,0.005126938223838806,0.0008234381675720215
1714858352963631000,1.958631103515625,-0.0032606124877929688,0.0002839118242263794,-0.01332419365644455
1714858352973580500,1.96858056640625,0.0015020370483398438,-0.013895601034164429,-0.0036930590867996216
1714858352983530000,1.978530029296875,0.006184577941894531,-0.02773250639438629,-0.013056822121143341
1714858352993479700,1.988479736328125,0.0013742446899414062,-0.027318425476551056,-0.026865996420383453
1714858353003429000,1.99842919921875,0.0060596466064453125,-0.026805832982063293,-0.021611474454402924
1714858353013378600,2.008378662109375,-0.003459930419921875,-0.03571898117661476,-0.01194848120212555
1714858353023328000,2.018327880859375,0.0013065338134765625,-0.016337402164936066,-0.0070480406284332275
1714858353033277400,2.02827734375,0.0012845993041992188,-0.011404640972614288,0.007187925279140472
1714858353043227000,2.038226806640625,0.0012636184692382812,-0.0018455013632774353,0.011769436299800873
1714858353053176300,2.04817626953125,0.010661125183105469,0.012262918055057526,0.025798063725233078
1714858353063126000,2.0581259765625,0.0010671615600585938,0.026029907166957855,0.03477799892425537
1714858353073075500,2.068075439453125,-0.003658294677734375,0.034965142607688904,0.024880174547433853
1714858353083025000,2.07802490234375,-0.008305549621582031,0.02491535246372223,0.029165148735046387
1714858353092974300,2.087974365234375,0.00595855712890625,0.02445196360349655,0.019254587590694427
1714858353102923800,2.097923828125,-0.008266448974609375,0.014577396214008331,0.004798918962478638
1714858353112873200,2.107873291015625,-0.008130073547363281,0.0002651140093803406,-0.014124423265457153
1714858353122823000,2.117822998046875,0.0014219284057617188,-0.004390604794025421,-0.018605738878250122
1714858353132772400,2.1277724609375,0.010815620422363281,-0.0043664127588272095,-0.02772095799446106
1714858353142721800,2.1377216796875,0.001216888427734375,-0.00423634797334671,-0.0178498774766922
1714858353152671200,2.147671142578125,-0.012929916381835938,-0.008817046880722046,-0.012851901352405548
1714858353162620700,2.15762060546875,-0.0032978057861328125,-0.003903336822986603,-0.007936395704746246
1714858353172570000,2.167570068359375,-0.0032415390014648438,0.00542449951171875,-0.003102801740169525
1714858353182519600,2.17751953125,-0.0031881332397460938,0.000576511025428772,0.02037748694419861
1714858353192469200,2.18746923828125,0.006281852722167969,-0.004190690815448761,0.024738330394029617
1714858353202418700,2.197418701171875,0.006175994873046875,-0.008772142231464386,0.024317901581525803
1714858353212368100,2.2073681640625,0.010781288146972656,-0.008674927055835724,0.005070090293884277
1714858353222317600,2.217317626953125,-0.0035238265991210938,-0.013287074863910675,-0.0044388845562934875
1714858353232267000,2.22726708984375,-0.008174896240234375,-0.013008326292037964,-0.01849880814552307
1714858353242216400,2.237216552734375,-0.008038520812988281,0.0012852847576141357,-0.013490013778209686
1714858353252166100,2.247166259765625,-0.00319671630859375,0.010739214718341827,-0.013378746807575226
1714858353262115600,2.257115478515625,0.010981559753417969,0.015326976776123047,-0.0132693350315094
1714858353272065000,2.26706494140625,-0.0033283233642578125,0.01983913779258728,0.001071155071258545
1714858353282014500,2.277014404296875,0.0014352798461914062,0.03358615189790726,0.015065528452396393
1714858353291964000,2.2869638671875,0.00141143798828125,0.032977394759655,0.014806307852268219
1714858353301913300,2.296913330078125,-0.0033216476440429688,0.02767103910446167,0.023863162845373154
1714858353311862800,2.30686279296875,0.0014429092407226562,0.008326493203639984,0.018854990601539612
1714858353321812500,2.3168125,-0.007998466491699219,-0.010695651173591614,0.009115412831306458
1714858353331762000,2.326761962890625,-0.0031576156616210938,-0.029294468462467194,-0.005170442163944244
1714858353341711400,2.33671142578125,0.0016040802001953125,-0.033563800156116486,-0.014403305947780609
1714858353351660800,2.346660888671875,-0.0031299591064453125,-0.04247058182954788,-0.018773697316646576
1714858353361610200,2.3566103515625,-0.0030775070190429688,-0.036995138972997665,-0.004235170781612396
1714858353371559700,2.3665595703125,-0.0030260086059570312,-0.022300895303487778,0.0005367249250411987
1714858353381509400,2.37650927734375,-0.0029754638671875,-0.0031429603695869446,0.0005204975605010986
1714858353391458800,2.386458740234375,-0.0076351165771484375,-0.0030324310064315796,0.005213141441345215
1714858353401408300,2.396408203125,-0.00279998779296875,0.020512960851192474,0.014429889619350433
1714858353411357700,2.406357666015625,-0.0074615478515625,0.020122095942497253,0.009472683072090149
1714858353421307100,2.41630712890625,-0.0026292800903320312,0.02455262839794159,0.004598088562488556
1714858353431256600,2.426256591796875,0.0021228790283203125,0.009968653321266174,-0.019029654562473297
1714858353441206000,2.4362060546875,0.006794929504394531,0.0004417598247528076,-0.028138652443885803
1714858353451155700,2.44615576171875,-0.002735137939453125,-0.004323184490203857,-0.02767779678106308
1714858353461105200,2.456105224609375,0.006728172302246094,0.00030306726694107056,-0.017806589603424072
1714858353471054600,2.4660546875,0.0019063949584960938,0.004958480596542358,-0.02704056352376938
1714858353481004000,2.476004150390625,-0.0028352737426757812,0.01435118168592453,-0.007762789726257324
1714858353490953500,2.485953369140625,0.0113372802734375,0.009356141090393066,-0.002931244671344757
1714858353500903200,2.495903076171875,0.0017309188842773438,0.004444345831871033,0.020654156804084778
1714858353510852600,2.5058525390625,-0.007716178894042969,0.004428431391716003,0.02501123771071434
1714858353520802000,2.515802001953125,0.00653839111328125,-0.005111560225486755,0.03400344401597977
1714858353530751700,2.525751708984375,0.006428718566894531,-0.009677663445472717,0.01930280029773712
1714858353540701200,2.535701171875,0.001613616943359375,-0.0189816951751709,0.004954300820827484
1714858353550650600,2.545650634765625,-0.007830619812011719,-0.028131507337093353,-0.009262189269065857
1714858353560600300,2.555600341796875,-0.0029916763305664062,-0.03241938352584839,-0.009115099906921387
1714858353570549800,2.5655498046875,0.001766204833984375,-0.022403713315725327,-0.004261866211891174
1714858353580499200,2.575499267578125,-0.002971649169921875,-0.007952667772769928,0.005219072103500366
1714858353590449000,2.585448974609375,-0.00762939453125,0.01567472517490387,0.019356876611709595
1714858353600398300,2.5953984375,-0.0027933120727539062,0.04361607879400253,0.023734737187623978
1714858353610348000,2.60534814453125,-0.0027475357055664062,0.05696680396795273,0.03264279663562775
1714858353620297500,2.61529736328125,-0.0027027130126953125,0.055968381464481354,0.01785854995250702
1714858353630247000,2.625246826171875,-0.007367134094238281,0.03154990077018738,-0.0013879016041755676
1714858353640196600,2.635196533203125,0.0021734237670898438,0.016848474740982056,-0.015393286943435669
1714858353650146000,2.64514599609375,0.0021390914916992188,-0.007131405174732208,-0.03387386351823807
1714858353660095500,2.655095458984375,-0.007313728332519531,-0.025788795202970505,-0.0426274910569191
1714858353670045200,2.665045166015625,0.0022249221801757812,-0.030115708708763123,-0.04192430526018143
1714858353679994600,2.67499462890625,-0.007229804992675781,-0.020244717597961426,-0.03181564807891846
1714858353689944000,2.684944091796875,0.011724472045898438,-0.0198482945561409,-0.012457415461540222
1714858353699893800,2.694893798828125,0.006819725036621094,-0.010042145848274231,0.006577305495738983
1714858353709843200,2.70484326171875,0.01141357421875,-0.0004002973437309265,0.02529393509030342
1714858353719792600,2.714792724609375,0.011223793029785156,-0.00044433772563934326,0.03898831829428673
1714858353729742300,2.724742431640625,0.011036872863769531,-0.0005922019481658936,0.04764128848910332
1714858353739691800,2.73469189453125,0.010851860046386719,0.008891314268112183,0.0374210886657238
1714858353749641200,2.74464111328125,-0.0081634521484375,-0.0054316446185112,0.017954885959625244
1714858353759591000,2.7545908203125,0.0013904571533203125,-0.014807276427745819,0.008336596190929413
1714858353769540400,2.764540283203125,-0.0033407211303710938,-0.01931805908679962,-0.02466437965631485
1714858353779490000,2.774489990234375,0.015549659729003906,-0.019045069813728333,-0.024261437356472015
1714858353789439500,2.784439453125,0.001163482666015625,-0.013961747288703918,-0.02868007868528366
1714858353799389000,2.794388916015625,0.005852699279785156,0.005057193338871002,-0.01879216730594635
1714858353809338600,2.804338623046875,0.0010461807250976562,0.009633369743824005,0.0003481358289718628
1714858353819288000,2.8142880859375,0.0010290145874023438,0.01884187012910843,0.005043648183345795
1714858353829237500,2.824237548828125,-0.008404731750488281,0.023081161081790924,0.01436864584684372
1714858353839187000,2.83418701171875,0.005860328674316406,0.008627980947494507,0.009412437677383423
1714858353849136400,2.844136474609375,-0.0036535263061523438,0.0037257522344589233,-0.004772938787937164
1714858353859086000,2.854086181640625,0.010533332824707031,-0.010405674576759338,-0.028139084577560425
1714858353869035500,2.864035400390625,-0.0037689208984375,-0.02430073544383049,-0.0276782289147377
1714858353878985000,2.87398486328125,0.005710601806640625,-0.02394385263323784,-0.027224205434322357
1714858353888934400,2.883934326171875,0.010324478149414062,-0.018989749252796173,-0.022068306803703308
1714858353898883800,2.8938837890625,0.0007352828979492188,-0.00459473580121994,0.001836046576499939
1714858353908833300,2.903833251953125,0.0007219314575195312,0.00966665893793106,0.015818513929843903
1714858353918783000,2.913782958984375,0.0054187774658203125,0.018874607980251312,0.02967338263988495
1714858353928732400,2.923732421875,-0.00408935546875,0.023327641189098358,0.043191902339458466
1714858353938681900,2.933681884765625,0.0053958892822265625,0.02288985252380371,0.03775530681014061
1714858353948631300,2.94363134765625,0.010014533996582031,0.01775076985359192,0.027700714766979218
1714858353958580700,2.953580810546875,-0.004279136657714844,0.00809505581855774,0.003687910735607147
1714858353968530200,2.9635302734375,0.0005006790161132812,-0.006214626133441925,-0.015216074883937836
1714858353978479600,2.973479736328125,0.0004911422729492188,-0.015470929443836212,-0.019785501062870026
1714858353988429300,2.98342919921875,-0.0042266845703125,-0.019863523542881012,-0.014754422008991241
1714858353998378800,2.993378662109375,0.009969711303710938,-0.024289201945066452,-0.023932993412017822
1714858354008328200,3.003328125,0.0050945281982421875,-0.023932520300149918,-0.018832795321941376
1714858354018277600,3.013277587890625,0.005008697509765625,-0.004747398197650909,0.00020188838243484497
1714858354028227000,3.02322705078125,-0.009200096130371094,0.004594475030899048,0.009608440101146698
1714858354038176500,3.033176513671875,0.00036907196044921875,0.00928466022014618,0.004626117646694183
1714858354048126200,3.043126220703125,0.000362396240234375,0.009187228977680206,0.004540883004665375
1714858354058075600,3.05307568359375,-0.009061813354492188,-0.00032576918601989746,-0.00025153160095214844
1714858354068025000,3.063025146484375,0.000507354736328125,-0.009786523878574371,-0.004857771098613739
1714858354077974500,3.072974609375,0.005208015441894531,-0.014380991458892822,-0.018804438412189484
1714858354087924000,3.082924072265625,0.009829521179199219,-0.03291839361190796,-0.02781006693840027
1714858354097873400,3.092873291015625,0.00024890899658203125,-0.03241875022649765,-0.008520305156707764
1714858354107822800,3.10282275390625,-0.0044651031494140625,-0.022403080016374588,0.000925309956073761
1714858354117772500,3.1127724609375,0.00031757354736328125,-0.007952041923999786,0.015028394758701324
1714858354127722000,3.122721923828125,0.00031185150146484375,0.00625813752412796,0.024187836796045303
1714858354137671400,3.13267138671875,-0.004401206970214844,0.015416592359542847,0.019068829715251923
1714858354147620900,3.142620849609375,-0.0043277740478515625,0.024527862668037415,0.014034301042556763
1714858354157570300,3.1525703125,0.0004520416259765625,0.03348727524280548,0.00426878035068512
1714858354167519700,3.162519775390625,-0.00426483154296875,0.028277866542339325,-0.000519096851348877
1714858354177469400,3.172469482421875,0.000514984130859375,0.03246702998876572,-0.000517725944519043
1714858354187419000,3.1824189453125,0.0005064010620117188,0.017751134932041168,-0.014643020927906036
1714858354197368300,3.192368408203125,0.009914398193359375,0.017512597143650055,-0.009698517620563507
1714858354207317800,3.20231787109375,0.005040168762207031,0.007755383849143982,-0.009544149041175842
1714858354217267200,3.21226708984375,0.000247955322265625,-0.011256404221057892,-0.018809549510478973
1714858354227216600,3.222216552734375,-0.0044651031494140625,-0.015719234943389893,-0.013688437640666962
1714858354237166000,3.232166015625,0.00031757354736328125,-0.02963203191757202,-0.008759841322898865
1714858354247115800,3.24211572265625,0.00031280517578125,-0.02447855845093727,0.0056101009249687195
1714858354257065200,3.252065185546875,0.00030803680419921875,-0.019411832094192505,0.014924801886081696
1714858354267014700,3.2620146484375,0.00030231475830078125,-0.033155933022499084,0.014668770134449005
1714858354276964000,3.271964111328125,-0.013828277587890625,-0.023234281688928604,0.014417007565498352
1714858354286913500,3.28191357421875,-0.004180908203125,-0.02289518341422081,0.009460851550102234
1714858354296863000,3.291863037109375,0.005305290222167969,-0.01303909718990326,0.004586450755596161
1714858354306812400,3.3018125,0.009924888610839844,0.0013621672987937927,0.009211324155330658
1714858354316762000,3.31176220703125,0.005049705505371094,0.02023116499185562,0.013758279383182526
1714858354326711600,3.321711669921875,-0.004450798034667969,0.02915588766336441,0.00881226360797882
1714858354336661000,3.331660888671875,-0.004375457763671875,0.038039013743400574,0.008764401078224182
1714858354346610400,3.3416103515625,-0.004302978515625,0.03264912962913513,0.008611902594566345
1714858354356560000,3.351559814453125,0.00047779083251953125,0.036765433847904205,-0.010373294353485107
1714858354366509300,3.36150927734375,0.00047016143798828125,0.012560702860355377,-0.014917135238647461
1714858354376459000,3.371458984375,-0.004246711730957031,-0.0018225684762001038,-0.024092987179756165
1714858354386408400,3.381408447265625,0.0005331039428710938,-0.0018411800265312195,-0.023699581623077393
1714858354396358000,3.39135791015625,-0.004184722900390625,-0.02069387584924698,-0.018604137003421783
1714858354406307300,3.401307373046875,0.0005931854248046875,-0.02510571852326393,-0.008884154260158539
1714858354416256800,3.4112568359375,0.005291938781738281,-0.020026832818984985,-0.004034757614135742
1714858354426206200,3.421206298828125,0.009911537170410156,-0.024344343692064285,0.010150142014026642
1714858354436155600,3.43115576171875,0.005038261413574219,-0.019278153777122498,0.01478857547044754
1714858354446105300,3.441105224609375,0.009661674499511719,-0.009588651359081268,0.02384486421942711
1714858354456054800,3.4510546875,-0.03288745880126953,-0.005407847464084625,0.016710206866264343
1714858354466004200,3.461004150390625,0.033565521240234375,0.026742354035377502,0.07465828210115433
1714858354475953700,3.47095361328125,0.023593902587890625,0.012121923267841339,0.04579203575849533
1714858354485903000,3.480903076171875,-0.0003452301025390625,-0.002361901104450226,0.011528126895427704
1714858354495852500,3.4908525390625,0.00907135009765625,-0.012108325958251953,-0.00878305733203888
1714858354505802200,3.50080224609375,0.00891876220703125,-0.007352389395236969,-0.018380053341388702
1714858354515751700,3.510751708984375,-0.07128429412841797,-0.01594880223274231,-0.09373485296964645
1714858354525701000,3.520701171875,0.009922027587890625,-0.014453351497650146,-0.06647676974534988
1714858354535650600,3.530650634765625,0.09450149536132812,0.033680208027362823,-0.009293057024478912
1714858354545600000,3.54060009765625,-0.029485702514648438,0.26384055614471436,0.18084722757339478
1714858354555549400,3.550549560546875,-0.05253124237060547,0.6181157231330872,0.019494816660881042
1714858354565499100,3.5604990234375,-0.02342987060546875,0.2894784212112427,0.05566902458667755
1714858354575448600,3.570448486328125,-0.008959770202636719,-0.5080980062484741,-0.19735246896743774
1714858354585398000,3.58039794921875,-0.15015411376953125,-1.0227130651474,-0.22535771131515503
1714858354595347700,3.59034765625,-0.15247631072998047,-0.85179603099823,-0.6239178776741028
1714858354605297200,3.600297119140625,-1.0636615753173828,-0.3596947193145752,0.007738832384347916
1714858354615246600,3.61024658203125,2.170095443725586,0.7866498231887817,0.75043785572052
1714858354625196300,3.6201962890625,1.4093427658081055,0.24626104533672333,-0.04934564232826233
1714858354635145700,3.630145751953125,2.4626903533935547,-0.10806173086166382,-0.972358226776123
1714858354645095400,3.640095458984375,2.4257402420043945,-0.1931593418121338,-0.9575526714324951
1714858354655044900,3.650044921875,1.2622928619384766,-0.4373216927051544,-0.49803200364112854
1714858354664994300,3.659994384765625,-0.28492259979248047,-0.4595104455947876,0.9003310203552246
1714858354674944000,3.669944091796875,-1.2359952926635742,-0.6340154409408569,1.736641764640808
1714858354684893400,3.6798935546875,-3.177424430847168,-0.946046769618988,3.3729655742645264
1714858354694843000,3.6898427734375,-3.251193046569824,-2.6518657207489014,3.3811140060424805
1714858354704792600,3.69979248046875,-2.7919344902038574,-4.056802749633789,2.995645761489868
1714858354714742000,3.709741943359375,-1.5109996795654297,-3.3208420276641846,2.289275884628296
1714858354724691500,3.71969140625,1.1509695053100586,-2.5825746059417725,-0.1651921272277832
1714858354734641200,3.72964111328125,4.3706254959106445,-3.0321173667907715,-1.689074993133545
1714858354744590600,3.739590576171875,7.573243141174316,-2.9245731830596924,-0.8004261255264282
1714858354754540000,3.7495400390625,9.723448753356934,-2.351405620574951,-0.2688405513763428
1714858354764489700,3.75948974609375,10.65610122680664,-2.8973841667175293,-1.3708739280700684
1714858354774439200,3.769439208984375,10.677041053771973,-2.787681818008423,-2.3455379009246826
1714858354784388900,3.779388916015625,9.436036109924316,-2.626791477203369,-2.449058771133423
1714858354794338300,3.78933837890625,8.028541564941406,-3.368088722229004,-2.2228922843933105
1714858354804287700,3.799287841796875,6.5451765060424805,-4.367133140563965,-1.4536315202713013
1714858354814237400,3.809237548828125,4.744655609130859,-4.854841709136963,-0.7830324769020081
1714858354824187000,3.819186767578125,3.626776695251465,-4.841259956359863,-0.9547092914581299
1714858354834136300,3.82913623046875,2.57407283782959,-4.293569087982178,-1.2740520238876343
1714858354844086000,3.8390859375,2.7769718170166016,-3.8252761363983154,-2.123015880584717
1714858354854035500,3.849035400390625,3.399730682373047,-3.387117624282837,-2.771328926086426
1714858354863985000,3.85898486328125,3.4672460556030273,-2.352403402328491,-3.0865564346313477
1714858354873934600,3.8689345703125,3.12473201751709,-1.510856032371521,-3.5841023921966553
1714858354883884000,3.878884033203125,3.0948944091796875,-2.472947597503662,-4.560686111450195
1714858354893833500,3.88883349609375,2.9451704025268555,-3.2197582721710205,-5.088946342468262
1714858354903783200,3.898783203125,1.3185653686523438,-2.055177927017212,-4.223479747772217
1714858354913732600,3.908732666015625,-0.5195817947387695,-1.175779104232788,-3.5753161907196045
1714858354923682300,3.918682373046875,-1.8473596572875977,-1.4718539714813232,-2.7897841930389404
1714858354933631700,3.9286318359375,-2.5157079696655273,-1.7153693437576294,-2.7542715072631836
1714858354943581200,3.938581298828125,-3.13179349899292,-1.770655870437622,-4.288042068481445
1714858354953531000,3.94853076171875,-4.20787239074707,-2.6612017154693604,-5.3088884353637695
1714858354963480300,3.958480224609375,-5.779719829559326,-4.6101179122924805,-3.5488243103027344
1714858354973429800,3.9684296875,-7.505654335021973,-4.4364166259765625,0.7733583450317383
1714858354983379500,3.97837939453125,-9.271170616149902,-2.3594107627868652,4.04115629196167
1714858354993329000,3.988328857421875,-10.132943153381348,-0.9940508604049683,5.833930015563965
1714858355003278300,3.9982783203125,-9.393564224243164,-0.5469827651977539,7.178552150726318
1714858355013227800,4.008227783203125,-7.174399375915527,-0.22438597679138184,7.645574569702148
1714858355023177200,4.01817724609375,-4.564249515533447,-0.2855801582336426,7.489509582519531
1714858355033127000,4.028126953125,-1.595982551574707,0.024034500122070312,6.972431659698486
1714858355043076400,4.038076416015625,2.271536350250244,1.2149133682250977,5.941211700439453
1714858355053025800,4.04802587890625,6.305877685546875,2.283700704574585,4.210729598999023
1714858355062975200,4.057975341796875,9.95193862915039,1.5913889408111572,4.200899124145508
1714858355072924700,4.067924560546875,11.845378875732422,0.9702191352844238,6.513599872589111
1714858355082874000,4.0778740234375,12.166940689086914,1.4927821159362793,10.041095733642578
1714858355092823800,4.08782373046875,11.244365692138672,2.5980427265167236,13.782971382141113
1714858355102773200,4.097773193359375,9.117204666137695,4.161206245422363,16.926921844482422
1714858355112722700,4.10772265625,6.843685150146484,4.944407939910889,19.042240142822266
1714858355122672000,4.117672119140625,5.409023284912109,3.746994972229004,19.715185165405273
1714858355132624400,4.127624267578125,5.421905517578125,0.9324097633361816,16.266056060791016
1714858355142573800,4.13757373046875,0.3989872932434082,-1.3729608058929443,-2.72383975982666
1714858355152523300,4.147523193359375,-3.7752373218536377,-1.0327823162078857,-2.45880126953125
1714858355162472700,4.15747265625,-2.687394380569458,0.7698640823364258,-3.0664801597595215
1714858355172422100,4.167422119140625,0.6929216384887695,1.499269962310791,-11.903290748596191
1714858355182371800,4.177371826171875,2.9144062995910645,1.7414960861206055,-12.493087768554688
1714858355192321300,4.1873212890625,4.709466934204102,1.999809741973877,-10.189467430114746
1714858355202270700,4.197270751953125,32.73027038574219,4.469242095947266,1.0612728595733643
1714858355212220200,4.20722021484375,9.21220588684082,3.511213779449463,5.384479522705078
1714858355222169600,4.217169677734375,4.71994686126709,3.8005075454711914,10.163651466369629
1714858355232119000,4.227119140625,1.8756656646728516,3.242952823638916,5.534534454345703
1714858355242068500,4.237068359375,-0.08719587326049805,2.1628780364990234,-0.3891124725341797
1714858355252018200,4.24701806640625,-1.001786231994629,0.642606258392334,-3.326894998550415
1714858355261967600,4.256967529296875,-3.477168560028076,-0.4300804138183594,-4.58535099029541
1714858355271917000,4.2669169921875,-5.0073933601379395,-1.0180363655090332,-5.333211421966553
1714858355281866500,4.276866455078125,-1.8324470520019531,-1.016761302947998,-5.553730010986328
1714858355291816000,4.28681591796875,5.726815223693848,-0.672858715057373,-3.700972318649292
1714858355301765400,4.296765380859375,4.7626800537109375,-0.5091762542724609,-4.042564392089844
1714858355311715000,4.306715087890625,2.230586290359497,-1.3937063217163086,-2.134183883666992
1714858355321664500,4.31666455078125,2.1857128143310547,-3.1419334411621094,0.5190620422363281
1714858355331614000,4.326614013671875,2.066744327545166,-4.259706020355225,0.7829198837280273
1714858355341563400,4.3365634765625,1.0747241973876953,-4.336499214172363,-0.1699991226196289
1714858355351512800,4.346512939453125,0.5653469562530518,-4.5584611892700195,-1.3772668838500977
1714858355361462300,4.356462158203125,-0.3718581199645996,-4.6103410720825195,-2.6733651161193848
1714858355371411700,4.36641162109375,-0.9230166673660278,-4.149936676025391,-2.6195950508117676
1714858355381361400,4.376361328125,-1.8903591632843018,-4.964208126068115,-2.2681570053100586
1714858355391310800,4.386310791015625,-2.9965476989746094,-5.333354949951172,-2.8192577362060547
1714858355401260300,4.39626025390625,-2.943309783935547,-5.222114086151123,-4.638737678527832
1714858355411209700,4.406209716796875,-2.613772392272949,-4.954911708831787,-7.304957389831543
1714858355421159200,4.4161591796875,-1.0966711044311523,-5.25453519821167,-10.793279647827148
1714858355431108600,4.426108642578125,1.121511459350586,-5.641850471496582,-13.977542877197266
1714858355441058300,4.436058349609375,2.7000303268432617,-5.052163124084473,-13.620504379272461
1714858355451007700,4.4460078125,3.3337221145629883,-4.295551776885986,-11.072357177734375
1714858355460957200,4.455957275390625,8.585599899291992,-3.5344061851501465,-7.122210502624512
1714858355470906600,4.46590673828125,7.320779800415039,-3.434436082839966,-3.240351676940918
1714858355480856000,4.47585595703125,7.622287750244141,-3.550151824951172,1.6506249904632568
1714858355490805500,4.485805419921875,9.306120872497559,-3.74859619140625,4.628566265106201
1714858355500755000,4.4957548828125,7.495516777038574,-4.174421310424805,6.9687581062316895
1714858355510704600,4.50570458984375,5.05528450012207,-5.315796375274658,8.364486694335938
1714858355520654000,4.515654052734375,1.7375669479370117,-6.829458236694336,8.857111930847168
1714858355530603500,4.525603515625,-2.242560863494873,-7.299571990966797,10.570884704589844
1714858355540553000,4.535552978515625,-5.267575263977051,-6.740375518798828,10.90905475616455
1714858355550502400,4.54550244140625,-6.367690086364746,-6.132933616638184,11.984408378601074
1714858355560451800,4.555451904296875,-6.695249557495117,-5.087748050689697,12.249580383300781
1714858355570401500,4.565401611328125,-4.590287685394287,-3.451946973800659,10.551573753356934
1714858355580351000,4.57535107421875,-2.7906110286712646,-2.5659003257751465,8.454355239868164
1714858355590300400,4.585300537109375,-1.9254508018493652,-2.9483063220977783,6.880773544311523
1714858355600249900,4.595249755859375,-0.8369154930114746,-4.249635696411133,6.184683322906494
1714858355610199300,4.60519921875,-0.39133596420288086,-5.545261383056641,3.0654306411743164
1714858355620148700,4.615148681640625,-1.630706548690796,-5.472269535064697,1.875241756439209
1714858355630098200,4.62509814453125,-3.284919023513794,-4.482954978942871,4.478887557983398
1714858355640047900,4.6350478515625,-1.3595279455184937,-4.0191144943237305,-0.012391090393066406
1714858355649997300,4.644997314453125,2.091606855392456,-3.1589932441711426,-3.7623353004455566
1714858355659946800,4.65494677734375,3.110304117202759,-2.326486587524414,-9.749828338623047
1714858355669896200,4.664896240234375,-0.34761929512023926,0.3359808921813965,-16.456729888916016
1714858355679845600,4.674845703125,-4.136264801025391,3.501702308654785,-17.92817497253418
1714858355689795300,4.68479541015625,-3.410799980163574,7.807068824768066,-16.087356567382812
1714858355699744800,4.694744873046875,-2.182384490966797,9.057440757751465,-15.70169448852539
1714858355709694200,4.704694091796875,-5.105922222137451,8.93785572052002,-19.827884674072266
1714858355719644000,4.714643798828125,-7.251282691955566,9.705320358276367,-13.78317642211914
1714858355729593300,4.72459326171875,-7.041804790496826,10.126205444335938,-2.453988552093506
1714858355739543000,4.73454296875,-5.639337539672852,11.06432819366455,2.536679267883301
1714858355749492500,4.744492431640625,-2.876690626144409,11.962677001953125,3.1326966285705566
1714858355759442000,4.75444189453125,-1.9691696166992188,9.555397987365723,1.3564705848693848
1714858355769391600,4.7643916015625,-3.7843127250671387,6.384743690490723,-0.03847694396972656
1714858355779341000,4.774341064453125,-6.48987340927124,4.0079498291015625,-1.700307011604309
1714858355789290500,4.78429052734375,-10.100704193115234,1.9292211532592773,-4.582000732421875
1714858355799240200,4.794240234375,-13.068666458129883,0.3271293640136719,-5.75925350189209
1714858355809189600,4.804189697265625,-15.898759841918945,-1.7209110260009766,-5.678478240966797
1714858355819139000,4.81413916015625,-16.608264923095703,-4.538508892059326,-6.17446756362915
1714858355829088800,4.8240888671875,-16.08633041381836,-6.4315361976623535,-6.927356243133545
1714858355839038200,4.8340380859375,-14.694920539855957,-8.17357063293457,-5.587664604187012
1714858355848987600,4.843987548828125,-13.865784645080566,-7.971630573272705,-2.6281914710998535
1714858355858937300,4.853937255859375,-11.682353019714355,-10.096227645874023,1.309675693511963
1714858355868886800,4.86388671875,-9.74215030670166,-11.852940559387207,5.921902656555176
1714858355878836500,4.87383642578125,-8.60426139831543,-12.180912971496582,9.027872085571289
1714858355888786000,4.883785888671875,-6.024956703186035,-11.234243392944336,12.260313034057617
1714858355898735400,4.8937353515625,-4.454791069030762,-9.513643264770508,15.549327850341797
1714858355908685000,4.90368505859375,-4.580537796020508,-7.115644454956055,16.231718063354492
1714858355918634500,4.913634521484375,-3.1303911209106445,-8.25990104675293,14.006915092468262
1714858355928584000,4.923583984375,-2.8748879432678223,-11.459142684936523,7.654833793640137
1714858355938533600,4.93353369140625,-4.036229133605957,-12.291069030761719,0.5639762878417969
1714858355948483000,4.943483154296875,-5.038477897644043,-13.320314407348633,-6.0822930335998535
1714858355958432500,4.9534326171875,-5.867475509643555,-14.965024948120117,-11.645806312561035
1714858355968382200,4.96338232421875,-6.128141403198242,-16.43808364868164,-14.496725082397461
1714858355978331600,4.97333154296875,-5.041407108306885,-17.827884674072266,-14.70661735534668
1714858355988281000,4.983281005859375,-3.974557876586914,-16.769847869873047,-14.434866905212402
1714858355998230800,4.993230712890625,-2.4426960945129395,-14.314586639404297,-15.875144958496094
1714858356008180200,5.00318017578125,0.6531004905700684,-12.11246395111084,-16.714170455932617
1714858356018129700,5.013129638671875,4.798253536224365,-9.367192268371582,-15.620641708374023
1714858356028079000,5.0230791015625,9.245848655700684,-7.093409538269043,-14.172369003295898
1714858356038028500,5.033028564453125,13.360197067260742,-5.268548011779785,-13.815237998962402
1714858356047978200,5.042978271484375,15.356559753417969,-4.460832595825195,-14.821771621704102
1714858356057927700,5.052927734375,15.425395965576172,-4.8285322189331055,-16.42105484008789
1714858356067877000,5.062877197265625,15.072999000549316,-4.776142120361328,-16.487276077270508
1714858356077826600,5.07282666015625,16.073284149169922,-4.212484359741211,-13.836996078491211
1714858356087776000,5.08277587890625,19.541465759277344,-4.983769416809082,-10.408709526062012
1714858356097725400,5.092725341796875,23.123085021972656,-5.854403495788574,-6.0746965408325195
1714858356107675100,5.102675048828125,23.823333740234375,-6.458871841430664,-2.2588489055633545
1714858356117624600,5.11262451171875,20.509387969970703,-7.315578460693359,0.49447500705718994
1714858356127574000,5.122573974609375,15.649917602539062,-7.165400981903076,3.4939181804656982
1714858356137523500,5.1325234375,11.542868614196777,-5.998282432556152,5.511631011962891
1714858356147473000,5.142472900390625,9.217124938964844,-5.179446220397949,5.7791361808776855
1714858356157422300,5.15242236328125,9.374981880187988,-6.026055812835693,5.524820804595947
1714858356167371800,5.162371826171875,10.449065208435059,-9.362675666809082,6.377409934997559
1714858356177321500,5.172321533203125,11.028180122375488,-12.806734085083008,8.099834442138672
1714858356187271000,5.18227099609375,9.76565933227539,-14.630878448486328,10.796753883361816
1714858356197220400,5.192220458984375,5.39661169052124,-12.816421508789062,12.30583381652832
1714858356207169800,5.202169677734375,1.2386999130249023,-9.280176162719727,11.773326873779297
1714858356217119200,5.212119140625,-1.1631836891174316,-6.297717094421387,11.264787673950195
1714858356227068700,5.222068603515625,-2.9690370559692383,-4.178499221801758,9.303214073181152
1714858356237018000,5.23201806640625,-4.276101112365723,-3.1361098289489746,5.989050388336182
1714858356246967800,5.2419677734375,-5.526740074157715,-2.488018035888672,2.1819963455200195
1714858356256917200,5.251917236328125,-6.1994171142578125,-0.41695356369018555,-3.9973397254943848
1714858356266866700,5.26186669921875,-5.841987609863281,2.2197961807250977,-9.207762718200684
1714858356276816100,5.271816162109375,-5.78280782699585,2.7065773010253906,-9.14950180053711
1714858356286765600,5.281765625,-6.050405979156494,1.713496208190918,-6.6128153800964355
1714858356296715000,5.291715087890625,-6.261744499206543,1.2278966903686523,-5.320003032684326
1714858356306664700,5.301664794921875,-8.054883003234863,1.0871152877807617,-6.86556339263916
1714858356316614100,5.3116142578125,-9.729071617126465,0.5284214019775391,-10.643537521362305
1714858356326563600,5.3215634765625,-9.563647270202637,-0.7638120651245117,-14.108230590820312
1714858356336513000,5.331512939453125,-9.4479341506958,-1.83563232421875,-17.163196563720703
1714858356346462500,5.34146240234375,-9.828901290893555,-3.1269149780273438,-18.150232315063477
1714858356356412000,5.351411865234375,-10.094552993774414,-4.925997734069824,-13.589751243591309
1714858356366361300,5.361361328125,-11.17288589477539,-6.811981678009033,-6.250145435333252
1714858356376311000,5.37131103515625,-12.15694808959961,-7.626948833465576,-1.2270922660827637
1714858356386260500,5.381260498046875,-13.76921558380127,-7.292396545410156,3.544933319091797
1714858356396210000,5.3912099609375,-15.619119644165039,-5.585880279541016,8.858223915100098
1714858356406159400,5.401159423828125,-16.487728118896484,-3.3197546005249023,11.46751594543457
1714858356416108800,5.41110888671875,-14.13508415222168,-2.083707809448242,9.928961753845215
1714858356426058200,5.421058349609375,-13.127641677856445,-1.8711819648742676,8.345725059509277
1714858356436008000,5.431008056640625,-16.81787872314453,-1.0778889656066895,8.286338806152344
1714858356445957400,5.440957275390625,-18.547698974609375,-0.5707254409790039,8.778532028198242
1714858356455906800,5.45090673828125,-16.93310546875,-0.1677865982055664,9.460993766784668
1714858356465856300,5.460856201171875,-11.192488670349121,0.31993818283081055,8.753337860107422
1714858356475805700,5.4708056640625,-4.838012218475342,-0.7112998962402344,7.12831449508667
1714858356485755100,5.480755126953125,-0.7717046737670898,-2.7466073036193848,4.447843551635742
1714858356495704600,5.49070458984375,1.8898239135742188,-4.678766250610352,0.16954326629638672
1714858356505654300,5.500654296875,3.6742382049560547,-6.4979095458984375,-5.2232537269592285
1714858356515603700,5.510603759765625,4.019054412841797,-8.722993850708008,-10.253271102905273
1714858356525553200,5.52055322265625,2.5963327884674072,-10.847230911254883,-13.206890106201172
1714858356535502600,5.530502685546875,0.4369010925292969,-11.969846725463867,-12.275188446044922
1714858356545452000,5.5404521484375,-1.5654244422912598,-12.386495590209961,-8.95709228515625
1714858356555401500,5.5504013671875,-3.605433464050293,-11.990852355957031,-4.750420570373535
1714858356565351200,5.56035107421875,-4.764298915863037,-10.34731674194336,-0.8976764678955078
1714858356575300600,5.570300537109375,-5.082213401794434,-8.91312313079834,1.3571386337280273
1714858356585250000,5.58025,-3.9339523315429688,-8.65734577178955,1.6712322235107422
1714858356595199500,5.590199462890625,-1.7993354797363281,-9.514917373657227,1.4651918411254883
1714858356605149000,5.60014892578125,-0.3943617343902588,-9.83907699584961,1.1371889114379883
1714858356615098400,5.610098388671875,1.2077696323394775,-9.463987350463867,-0.13283920288085938
1714858356625047800,5.6200478515625,3.783230781555176,-7.5309906005859375,-1.997678279876709
1714858356634997500,5.62999755859375,6.464222431182861,-5.192211151123047,-2.248678684234619
1714858356644947000,5.639947021484375,9.152324676513672,-3.4382433891296387,-1.0414838790893555
1714858356654896400,5.649896484375,12.012555122375488,-3.422785758972168,0.45841312408447266
1714858356664845800,5.659845703125,14.177361488342285,-5.2299933433532715,1.436161994934082
1714858356674795300,5.669795166015625,14.76108169555664,-7.2278313636779785,1.2267637252807617
1714858356684744700,5.67974462890625,14.06721305847168,-7.707292556762695,0.2285785675048828
1714858356694694400,5.6896943359375,10.377315521240234,-6.1554107666015625,-0.8502163887023926
1714858356704643800,5.699643798828125,5.963024139404297,-4.496034145355225,-1.5554327964782715
1714858356714593300,5.70959326171875,4.147703647613525,-3.210616111755371,0.014114856719970703
1714858356724542700,5.719542724609375,4.873098373413086,-2.613368034362793,3.9661312103271484
1714858356734492200,5.7294921875,6.473014831542969,-4.216060161590576,7.285589694976807
1714858356744441600,5.739441650390625,5.408281326293945,-6.309775352478027,10.289130210876465
1714858356754391000,5.74939111328125,3.480144500732422,-8.236282348632812,13.800195693969727
1714858356764340700,5.7593408203125,1.2605714797973633,-9.667734146118164,16.241819381713867
1714858356774290200,5.769290283203125,-2.1649327278137207,-10.66044807434082,17.134014129638672
1714858356784239600,5.779239501953125,-5.4689621925354,-11.269000053405762,17.986553192138672
1714858356794189000,5.78918896484375,-7.393499374389648,-11.849720001220703,18.517139434814453
1714858356804138500,5.799138427734375,-8.311279296875,-12.540546417236328,17.62152671813965
1714858356814088000,5.809087890625,-8.579161643981934,-13.276185989379883,14.722427368164062
1714858356824037600,5.81903759765625,-8.507399559020996,-14.043899536132812,9.847013473510742
1714858356833987000,5.828987060546875,-8.565621376037598,-14.549921035766602,3.5417919158935547
1714858356843936500,5.8389365234375,-7.5912675857543945,-13.029561996459961,-3.44918155670166
1714858356853886000,5.848885986328125,-7.23508358001709,-9.672402381896973,-7.512669563293457
1714858356863835400,5.85883544921875,-8.230671882629395,-6.811122417449951,-8.036295890808105
1714858356873784800,5.868784912109375,-8.498834609985352,-5.018939018249512,-8.029834747314453
1714858356883734300,5.878734375,-8.03592300415039,-4.590359687805176,-10.282727241516113
1714858356893684000,5.88868408203125,-8.067460060119629,-4.575374603271484,-13.188661575317383
1714858356903633400,5.89863330078125,-9.654353141784668,-4.822751998901367,-15.562970161437988
1714858356913582800,5.908582763671875,-11.98455810546875,-5.445761680603027,-18.2227725982666
1714858356923532300,5.9185322265625,-12.849054336547852,-4.757241249084473,-20.65410804748535
1714858356933481700,5.928481689453125,-12.614784240722656,-4.438384056091309,-21.37491798400879
1714858356943431200,5.93843115234375,-11.930632591247559,-4.530200004577637,-20.848299026489258
1714858356953380900,5.948380859375,-11.77314567565918,-4.427005767822266,-19.715904235839844
1714858356963330300,5.958330322265625,-12.616975784301758,-5.278947353363037,-19.074384689331055
1714858356973279700,5.96827978515625,-13.71420955657959,-5.0933637619018555,-16.96466827392578
1714858356983229200,5.978229248046875,-13.883386611938477,-4.163852691650391,-11.765495300292969
1714858356993178600,5.9881787109375,-11.906320571899414,-3.4866013526916504,-4.177167892456055
1714858357003128000,5.998128173828125,-8.561368942260742,-2.4047598838806152,4.313311576843262
1714858357013077500,6.008077392578125,-4.1889142990112305,-0.2702293395996094,11.313966751098633
1714858357023027200,6.018027099609375,1.3468704223632812,1.2039337158203125,14.817953109741211
1714858357032976600,6.0279765625,7.926711559295654,1.1732430458068848,14.884483337402344
1714858357042926000,6.037926025390625,12.069173812866211,1.8129291534423828,13.538298606872559
1714858357052875500,6.04787548828125,9.923017501831055,3.808591365814209,13.652143478393555
1714858357062825000,6.057824951171875,2.816990375518799,5.46470308303833,16.15255355834961
1714858357072774400,6.0677744140625,-3.074192762374878,6.162628650665283,17.87508773803711
1714858357082724000,6.07772412109375,-6.0111517906188965,6.7502031326293945,18.258174896240234
1714858357092673500,6.087673583984375,-6.986275672912598,6.401750087738037,16.773921966552734
1714858357102623000,6.097623046875,-7.533569812774658,3.843675136566162,14.20089340209961
1714858357112572400,6.107572509765625,-7.214482307434082,2.143099308013916,10.815196990966797
1714858357122521900,6.11752197265625,-5.948373317718506,1.6851444244384766,8.021703720092773
1714858357132471300,6.12747119140625,-4.678167343139648,1.7437524795532227,6.8210039138793945
1714858357142420700,6.137420654296875,-4.057655334472656,1.1096558570861816,6.871176242828369
1714858357152370400,6.147370361328125,-3.4399337768554688,-0.18444108963012695,6.505576133728027
1714858357162320000,6.15731982421875,-3.1785378456115723,-0.35330820083618164,4.931333065032959
1714858357172269300,6.167269287109375,-2.042048454284668,0.22583580017089844,3.2232754230499268
1714858357182218800,6.17721875,-0.06308746337890625,0.08312368392944336,2.192251205444336
1714858357192168200,6.187168212890625,2.1559810638427734,-0.7682271003723145,1.510401964187622
1714858357202117600,6.19711767578125,4.060733795166016,-2.1508665084838867,1.014120101928711
1714858357212067000,6.207067138671875,4.017367362976074,-3.0919859409332275,1.2712676525115967
1714858357222016800,6.217016845703125,1.6705446243286133,-3.528217315673828,1.5807600021362305
1714858357231966200,6.22696630859375,-2.08125638961792,-2.9931390285491943,1.1476261615753174
1714858357241915600,6.23691552734375,-5.58045768737793,-2.2947704792022705,0.33223384618759155
1714858357251865000,6.246864990234375,-7.8161797523498535,-1.9370321035385132,0.007601737976074219
1714858357261814500,6.256814453125,-8.358028411865234,-2.3714394569396973,-0.2675633430480957
1714858357271764000,6.266763916015625,-7.615035057067871,-3.1237306594848633,-0.7578014135360718
1714858357281713700,6.276713623046875,-5.245362758636475,-3.5919156074523926,-1.2379058599472046
1714858357291663000,6.2866630859375,-2.593149185180664,-4.233223915100098,-1.4944486618041992
1714858357301612500,6.296612548828125,-0.48403453826904297,-5.141721725463867,-2.224964141845703
1714858357311562000,6.30656201171875,0.36392879486083984,-5.098165512084961,-3.307507276535034
1714858357321511400,6.316511474609375,1.252284049987793,-4.38239860534668,-4.927861213684082
1714858357331460900,6.3264609375,3.3335981369018555,-3.786980390548706,-6.1889753341674805
1714858357341410300,6.336410400390625,5.35664176940918,-3.325326919555664,-5.903741836547852
1714858357351360000,6.346360107421875,6.842507362365723,-4.088846683502197,-4.778390884399414
1714858357361309400,6.356309326171875,6.980571746826172,-4.539586067199707,-3.376016616821289
1714858357371259000,6.3662587890625,5.861773490905762,-4.26167106628418,-2.8127598762512207
1714858357381208300,6.376208251953125,3.237095832824707,-3.5033984184265137,-2.4952380657196045
1714858357391157800,6.38615771484375,-0.029585838317871094,-3.2848589420318604,-2.4297242164611816
1714858357401107200,6.396107177734375,-2.644615650177002,-3.2610111236572266,-3.2031733989715576
1714858357411057000,6.406056884765625,-3.5302491188049316,-2.3941221237182617,-5.1723151206970215
1714858357421006300,6.41600634765625,-1.7062044143676758,-1.3159542083740234,-6.2650885581970215
1714858357430955800,6.425955810546875,1.1851873397827148,-1.3893827199935913,-4.8298420906066895
1714858357440905200,6.4359052734375,4.498597145080566,-1.6637020111083984,-2.6283326148986816
1714858357450854700,6.445854736328125,6.168704986572266,-1.5784085988998413,-0.08242267370223999
1714858357460804000,6.45580419921875,6.049175262451172,-1.6808981895446777,1.778223991394043
1714858357470753500,6.46575341796875,5.097545623779297,-1.8140478134155273,2.171137571334839
1714858357480703200,6.475703125,3.010594367980957,-1.0064175128936768,1.5561928749084473
1714858357490652700,6.485652587890625,0.8761825561523438,-0.6377808451652527,0.5361648201942444
1714858357500602000,6.49560205078125,-0.927729606628418,-0.7602553963661194,0.19734959304332733
1714858357510551600,6.505551513671875,-2.2248191833496094,-0.47965431213378906,0.5539470911026001
1714858357520501000,6.5155009765625,-2.638944149017334,-0.21438297629356384,0.8995013236999512
1714858357530450400,6.525450439453125,-2.1962051391601562,0.15097886323928833,1.3033334016799927
1714858357540400000,6.535400146484375,-1.491044044494629,0.1457788050174713,1.7681457996368408
1714858357550349600,6.545349609375,-0.6389150619506836,0.0347447395324707,2.056086540222168
1714858357560299000,6.555299072265625,-0.12261295318603516,0.1717923879623413,2.1474387645721436
1714858357570248400,6.56524853515625,-0.4951467514038086,0.4848613142967224,2.0622060298919678
1714858357580198000,6.575197998046875,13.332623481750488,0.5224901437759399,3.146415948867798
1714858357590147300,6.585147216796875,3.476839065551758,-0.9669607877731323,0.17459768056869507
1714858357600096800,6.5950966796875,-2.5842337608337402,0.3094263970851898,-2.7747995853424072
1714858357610046500,6.60504638671875,-0.9145755767822266,0.8486358523368835,-2.4802260398864746
1714858357619996000,6.614995849609375,2.6314916610717773,-0.39489543437957764,0.26255422830581665
1714858357629945300,6.6249453125,-0.15549373626708984,-0.039666712284088135,1.4139982461929321
1714858357639894800,6.634894775390625,-0.5235080718994141,0.38408827781677246,1.7273050546646118
1714858357649844200,6.64484423828125,0.15540504455566406,0.39918676018714905,0.5653216242790222
1714858357659793700,6.654793701171875,0.13940143585205078,0.7999334335327148,-0.537406325340271
1714858357669743400,6.664743408203125,-0.4163074493408203,1.3957984447479248,-0.988632321357727
1714858357679692800,6.67469287109375,-0.7127141952514648,1.3955354690551758,-0.5896530747413635
1714858357689642200,6.684642333984375,-0.0626382827758789,1.1128840446472168,0.12599436938762665
1714858357699591700,6.694591796875,1.2399606704711914,1.0177109241485596,0.8452373743057251
1714858357709541000,6.704541015625,0.09851455688476562,1.3191616535186768,0.1919248104095459
1714858357719490600,6.714490478515625,0.5264177322387695,1.3990528583526611,-0.5292601585388184
1714858357729440000,6.72443994140625,0.06493091583251953,0.7915128469467163,-0.41705384850502014
1714858357739389700,6.7343896484375,0.1302051544189453,-0.23313748836517334,0.20329855382442474
1714858357749339100,6.744339111328125,0.40581798553466797,-0.8762683868408203,0.8738101720809937
1714858357759288600,6.75428857421875,1.0782766342163086,-1.464524745941162,1.1252189874649048
1714858357769238300,6.76423828125,1.6425132751464844,-2.248526096343994,0.4266839623451233
1714858357779187700,6.774187744140625,0.6286468505859375,-1.5640534162521362,1.5811924934387207
1714858357789137200,6.78413720703125,-4.1815643310546875,-0.10575567185878754,0.678155243396759
1714858357799086800,6.7940869140625,-2.8299269676208496,0.35216572880744934,0.7864741086959839
1714858357809036300,6.804036376953125,0.04480457305908203,-0.33595138788223267,0.5072166919708252
1714858357818985700,6.81398583984375,2.114561080932617,-1.1900498867034912,-2.317366123199463
1714858357828935400,6.823935302734375,1.0239601135253906,-0.5626785755157471,-0.11041344702243805
1714858357838884900,6.833884765625,-2.1565961837768555,-0.2953641414642334,2.295700788497925
1714858357848834600,6.84383447265625,3.674687385559082,-0.09020452201366425,0.8726228475570679
1714858357858784000,6.853783935546875,-1.373835563659668,-0.10823765397071838,0.9681792855262756
1714858357868733400,6.8637333984375,0.00042247772216796875,0.14164578914642334,-0.4831244945526123
1714858357878683100,6.87368310546875,0.9843645095825195,0.5940226316452026,-0.40313297510147095
1714858357888632600,6.883632568359375,-0.7710361480712891,0.7142256498336792,-1.0774987936019897
1714858357898582000,6.89358203125,0.32947254180908203,0.6265207529067993,-1.0499881505966187
1714858357908531700,6.90353173828125,-0.08211135864257812,0.5186805725097656,-1.7304635047912598
1714858357918481200,6.913481201171875,0.047054290771484375,0.18298618495464325,-0.09346289932727814
1714858357928430600,6.9234306640625,0.061270713806152344,0.13884876668453217,-0.02030351758003235
1714858357938380300,6.93338037109375,0.02768230438232422,0.10480348020792007,-0.020153064280748367
1714858357948329700,6.943329833984375,0.051497459411621094,0.0659596398472786,-0.033903345465660095
1714858357958279200,6.953279052734375,0.041815757751464844,0.03687300533056259,-0.04804818704724312
1714858357968228900,6.963228759765625,0.04648876190185547,0.02707245945930481,-0.05249754711985588
1714858357978178300,6.97317822265625,0.05592536926269531,0.022072846069931984,-0.0427137166261673
1714858357988128000,6.9831279296875,0.051009178161621094,0.007532460615038872,-0.05216732993721962
1714858357998077400,6.993077392578125,0.050881385803222656,0.012240983545780182,-0.04726802930235863
1714858358008027000,7.00302685546875,0.04597759246826172,0.01683049090206623,-0.03760455548763275
1714858358017976600,7.0129765625,0.04586219787597656,0.016739746555685997,-0.0517401359975338
1714858358027926000,7.022926025390625,0.05052375793457031,0.035647712647914886,-0.04206545650959015
1714858358037875500,7.03287548828125,0.04562091827392578,0.05939166992902756,-0.04674428328871727
1714858358047825200,7.0428251953125,0.059836387634277344,0.06874696910381317,-0.03708212077617645
1714858358057774600,7.052774658203125,0.05968666076660156,0.08285531401634216,-0.032220546156167984
1714858358067724000,7.06272412109375,0.05476093292236328,0.10159798711538315,-0.013041801750659943
1714858358077673500,7.072673583984375,0.04984760284423828,0.1156250387430191,-0.00824025273323059
1714858358087623000,7.082622802734375,0.04494667053222656,0.12494741380214691,-0.008227180689573288
1714858358097572400,7.092572265625,0.05438709259033203,0.11503351479768753,-0.017767008394002914
1714858358107522000,7.10252197265625,0.05425071716308594,0.10992082208395004,-0.027282986789941788
1714858358117471500,7.112471435546875,0.044562339782714844,0.10482091456651688,-0.041551604866981506
1714858358127421000,7.1224208984375,0.05400371551513672,0.07585117965936661,-0.05100817605853081
1714858358137370400,7.132370361328125,0.04909229278564453,0.05173071101307869,-0.060441046953201294
1714858358147319800,7.14231982421875,0.05852222442626953,0.04677627980709076,-0.05552103742957115
1714858358157269200,7.152269287109375,0.05359935760498047,0.02272850088775158,-0.06016619876027107
1714858358167218700,7.16221875,0.058241844177246094,0.017846571281552315,-0.0456940121948719
1714858358177168400,7.17216845703125,0.048542022705078125,0.02274424396455288,-0.026588845998048782
1714858358187117800,7.182117919921875,0.053195953369140625,0.03707484155893326,-0.007531497627496719
1714858358197067300,7.1920673828125,0.06261539459228516,0.05126277729868889,0.0019254013895988464
1714858358207016700,7.2020166015625,0.052906036376953125,0.06063880771398544,0.02101878821849823
1714858358216966100,7.211966064453125,0.052773475646972656,0.07487510144710541,0.025735143572092056
1714858358226915600,7.22191552734375,0.057417869567871094,0.08896853029727936,0.011441254988312721
1714858358236865300,7.231865234375,0.042944908142089844,0.08392100036144257,-0.0029241740703582764
1714858358246814700,7.241814697265625,0.047614097595214844,0.08843851834535599,-0.01725376397371292
1714858358256764200,7.25176416015625,0.05704784393310547,0.08349916338920593,-0.050653260201215744
1714858358266713600,7.261713623046875,0.05212879180908203,0.07846487313508987,-0.06486353278160095
1714858358276663000,7.2716630859375,0.04244518280029297,0.07811231911182404,-0.06948540359735489
1714858358286612500,7.281612548828125,0.047115325927734375,0.0683150663971901,-0.06454287469387054
1714858358296562000,7.29156201171875,0.0469970703125,0.06798788905143738,-0.05005982518196106
1714858358306511600,7.30151171875,0.05643272399902344,0.05821637064218521,-0.045165762305259705
1714858358316461000,7.3114609375,0.041962623596191406,0.06290586292743683,-0.040283940732479095
1714858358326410500,7.321410400390625,0.056186676025390625,0.053147051483392715,-0.04019075259566307
1714858358336360000,7.33135986328125,0.041716575622558594,0.04341220110654831,-0.044874321669340134
1714858358346309400,7.341309326171875,0.05985546112060547,0.028620213270187378,-0.034716732800006866
1714858358356258800,7.3512587890625,0.054149627685546875,0.023386619985103607,-0.029436934739351273
1714858358366208500,7.36120849609375,0.05324745178222656,0.027656998485326767,-0.03837103769183159
1714858358376158000,7.371157958984375,0.05706787109375,0.01783664897084236,-0.04255332052707672
1714858358386107400,7.381107421875,0.041991233825683594,0.03161715716123581,-0.027725722640752792
1714858358396056800,7.391056884765625,0.05070972442626953,0.05447937175631523,-0.017748039215803146
1714858358406006300,7.40100634765625,0.040447235107421875,0.0629405602812767,0.006083332002162933
1714858358415955700,7.410955810546875,0.049190521240234375,0.0712607353925705,0.015391727909445763
1714858358425905200,7.4209052734375,0.03895378112792969,0.08415036648511887,0.024438995867967606
1714858358435854800,7.430854736328125,0.043013572692871094,0.08740798383951187,0.023918263614177704
1714858358445804300,7.44080419921875,0.042296409606933594,0.09531944990158081,0.023511849343776703
1714858358455753700,7.450753662109375,0.041591644287109375,0.07955652475357056,0.013695189729332924
1714858358465703200,7.460703125,0.03619098663330078,0.06876447051763535,0.008856374770402908
1714858358475652600,7.470652587890625,0.03558826446533203,0.05815272405743599,-0.0054246410727500916
1714858358485602000,7.48060205078125,0.030286788940429688,0.04771738499403,0.004075087606906891
1714858358495551700,7.4905517578125,0.039198875427246094,0.03745641931891441,-0.0008149482309818268
1714858358505501200,7.500501220703125,0.03854656219482422,0.03207506239414215,-0.005411718040704727
1714858358515450600,7.51045068359375,0.037903785705566406,0.031491540372371674,-0.010038036853075027
1714858358525400000,7.520400146484375,0.032563209533691406,0.02150098979473114,-0.04283856600522995
1714858358535349500,7.530349609375,0.03202056884765625,0.0209882240742445,-0.07038383185863495
1714858358545299000,7.540298828125,0.026778221130371094,0.011172711849212646,-0.0974700003862381
1714858358555248400,7.550248291015625,0.03574943542480469,0.020461078733205795,-0.1052703708410263
1714858358565198000,7.560197998046875,0.02573680877685547,0.0343027263879776,-0.11294101178646088
1714858358575147500,7.5701474609375,0.025307655334472656,0.03828563541173935,-0.10164885222911835
1714858358585097000,7.580096923828125,0.024886131286621094,0.05172475054860115,-0.08112800121307373
1714858358595046400,7.59004638671875,0.033888816833496094,0.06033775955438614,-0.05142572522163391
1714858358604995800,7.599995849609375,0.02861499786376953,0.06870127469301224,-0.03174161538481712
1714858358614945300,7.6099453125,0.0516815185546875,0.06269308924674988,-0.007677312940359116
1714858358624895000,7.61989501953125,0.031986236572265625,0.056891560554504395,0.0018604584038257599
1714858358634844400,7.629844482421875,0.03616142272949219,0.05118614807724953,0.02065611258149147
1714858358644793900,7.6397939453125,0.03085041046142578,0.02674144133925438,0.015595514327287674
1714858358654743300,7.649743408203125,0.0209197998046875,0.035558342933654785,0.020036447793245316
1714858358664692700,7.659692626953125,0.02528095245361328,0.025393910706043243,0.014986168593168259
1714858358674642200,7.66964208984375,0.020151138305664062,0.02492206171154976,0.010020054876804352
1714858358684591600,7.679591552734375,0.02923297882080078,0.00551769882440567,0.00042810291051864624
1714858358694541300,7.689541259765625,0.03345489501953125,0.000562526285648346,-0.023129772394895554
1714858358704490800,7.69949072265625,0.032896995544433594,-0.008806673809885979,-0.04158641770482063
1714858358714440200,7.709440185546875,0.0323486328125,-0.01812572404742241,-0.06915265321731567
1714858358724389600,7.7193896484375,0.02239227294921875,-0.008455658331513405,-0.09625983238220215
1714858358734339000,7.729339111328125,0.022020339965820312,-0.017781179398298264,-0.10397481918334961
1714858358744288500,7.73928857421875,0.012237548828125,-0.012824911624193192,-0.10214364528656006
1714858358754238200,7.74923828125,0.030867576599121094,0.0014659315347671509,-0.08632320910692215
1714858358764187600,7.759187744140625,0.030353546142578125,0.025041796267032623,-0.05193205922842026
1714858358774137000,7.76913720703125,0.02513885498046875,0.057537201792001724,-0.018113330006599426
1714858358784086500,7.77908642578125,0.03413581848144531,0.06594803929328918,0.029161524027585983
1714858358794036000,7.789035888671875,0.019440650939941406,0.08363522589206696,0.05691971629858017
1714858358803985400,7.7989853515625,0.023825645446777344,0.0917164757847786,0.07019553333520889
1714858358813934800,7.808934814453125,0.02813720703125,0.09966302663087845,0.08314403891563416
1714858358823884500,7.818884521484375,0.02766895294189453,0.0885360985994339,0.0771479457616806
1714858358833834000,7.828833984375,0.017790794372558594,0.06817801296710968,0.07114619761705399
1714858358843783400,7.838783447265625,0.017495155334472656,0.06217895820736885,0.03228430822491646
1714858358853733000,7.848733154296875,0.017203330993652344,0.0328429751098156,-0.005929883569478989
1714858358863682600,7.8586826171875,0.012207984924316406,0.013519175350666046,-0.03879857063293457
1714858358873632000,7.868632080078125,0.012003898620605469,-0.01019115000963211,-0.06180833280086517
1714858358883581700,7.878581787109375,0.011803627014160156,-0.019379908218979836,-0.08903661370277405
1714858358893531100,7.88853125,0.02102375030517578,-0.023813601583242416,-0.08285140991210938
1714858358903480600,7.89848046875,0.020674705505371094,-0.02817339450120926,-0.08137181401252747
1714858358913430300,7.90843017578125,0.029747962951660156,-0.027646489441394806,-0.06097690761089325
1714858358923379700,7.918379638671875,0.019834518432617188,-0.017816608771681786,-0.022299200296401978
1714858358933329400,7.928329345703125,0.01950359344482422,-0.0033365413546562195,-0.0031009986996650696
1714858358943278800,7.93827880859375,0.028595924377441406,0.01090286672115326,0.011069126427173615
1714858358953228300,7.948228271484375,0.013993263244628906,0.020089589059352875,0.03441978991031647
1714858358963178000,7.958177978515625,0.018469810485839844,0.038434285670518875,0.043255481868982315
1714858358973127400,7.96812744140625,0.018161773681640625,0.06128859892487526,0.03781861439347267
1714858358983076900,7.978076904296875,0.008441925048828125,0.07434416562318802,0.037180449813604355
1714858358993026600,7.988026611328125,0.013010978698730469,0.07765883207321167,0.022533230483531952
1714858359002976000,7.99797607421875,0.01279449462890625,0.07631704956293106,0.017442278563976288
1714858359012925400,8.007925537109376,0.007872581481933594,0.07499636709690094,0.0030178911983966827
1714858359022875100,8.017875244140624,0.007740974426269531,0.054863933473825455,-0.0252913199365139
1714858359032824600,8.027824462890624,0.01702880859375,0.03977563604712486,-0.0390029177069664
1714858359042774000,8.03777392578125,0.012036323547363281,0.020230218768119812,-0.05248599126935005
1714858359052723700,8.0477236328125,0.007126808166503906,-0.0036986880004405975,-0.061036333441734314
1714858359062673200,8.057673095703125,0.016425132751464844,-0.03183060511946678,-0.05531780421733856
1714858359072622600,8.06762255859375,0.02556896209716797,-0.0501832589507103,-0.05440375208854675
1714858359082572300,8.077572265625,0.02043437957763672,-0.04939565435051918,-0.02525334805250168
1714858359092521700,8.087521728515625,0.020093917846679688,-0.03438856825232506,-0.0012968182563781738
1714858359102471400,8.097471435546876,0.019759178161621094,-0.01492232084274292,0.017552398145198822
1714858359112420900,8.1074208984375,0.014720916748046875,0.004112660884857178,0.045504096895456314
1714858359122370300,8.117370361328126,0.019184112548828125,0.03224758431315422,0.058758001774549484
1714858359132320000,8.127320068359374,0.01886463165283203,0.04107920080423355,0.07189714908599854
1714858359142269400,8.13726953125,0.01854991912841797,0.059286970645189285,0.06127433478832245
1714858359152219000,8.147218994140625,0.008824348449707031,0.053540851920843124,0.03209917992353439
1714858359162168600,8.15716845703125,0.013386726379394531,0.047890517860651016,-0.0012983381748199463
1714858359172118000,8.167117919921875,0.008455276489257812,0.0376257449388504,-0.043662600219249725
1714858359182067500,8.1770673828125,0.0036058425903320312,0.02293025702238083,-0.07119440287351608
1714858359192017200,8.18701708984375,0.012963294982910156,0.017898183315992355,-0.07943173497915268
1714858359201966600,8.196966552734375,0.008038520812988281,0.003425970673561096,-0.07340660691261292
1714858359211916000,8.206916015625,0.007904052734375,0.012844789773225784,-0.04875306040048599
1714858359221865700,8.21686572265625,0.012480735778808594,0.0032715685665607452,-0.014987662434577942
1714858359231815200,8.226815185546876,0.007564544677734375,-0.001539669930934906,-0.0006194040179252625
1714858359241764900,8.236764892578124,0.007439613342285156,-0.006270028650760651,0.027741961181163788
1714858359251714300,8.24671435546875,0.016733169555664062,-0.001505047082901001,0.0413980633020401
1714858359261663700,8.256663818359375,0.0023288726806640625,-0.0061311908066272736,0.05011734366416931
1714858359271613200,8.26661328125,0.021124839782714844,-0.010786402970552444,0.04456551745533943
1714858359281562600,8.276562744140625,0.020772933959960938,-0.015363354235887527,0.039106838405132294
1714858359291512300,8.28651220703125,0.025135040283203125,-0.019757840782403946,0.014904752373695374
1714858359301461800,8.296461669921875,0.02471637725830078,-0.009953301399946213,-0.023019760847091675
1714858359311411200,8.3064111328125,0.019596099853515625,0.013707436621189117,-0.017934828996658325
1714858359321360600,8.316360595703125,0.005145072937011719,0.03686762973666191,-0.012934640049934387
1714858359331310000,8.32631005859375,0.005059242248535156,0.05974802374839783,-0.01272638887166977
1714858359341259500,8.336259521484376,-0.0044422149658203125,0.053995490074157715,-0.003210611641407013
1714858359351209000,8.346208984375,-0.004367828369140625,0.053046099841594696,-0.00787428766489029
1714858359361158700,8.35615869140625,0.005122184753417969,0.047403931617736816,-0.021983645856380463
1714858359371108000,8.366108154296874,0.009745597839355469,0.023128271102905273,-0.021625220775604248
1714858359381057500,8.3760576171875,0.009583473205566406,0.017984725534915924,-0.021273434162139893
1714858359391007000,8.386007080078125,0.014132499694824219,0.012926891446113586,-0.0020931288599967957
1714858359400956400,8.395956298828125,0.004479408264160156,0.0032447651028633118,0.026184692978858948
1714858359410905900,8.40590576171875,0.009113311767578125,0.01726766675710678,0.05388568341732025
1714858359420855600,8.41585546875,0.013669967651367188,0.026455126702785492,0.07181466370820999
1714858359430805000,8.425804931640625,0.018149375915527344,0.030780859291553497,0.07521282881498337
1714858359440754400,8.43575439453125,0.008428573608398438,0.0020736977458000183,0.0455935001373291
1714858359450704000,8.445703857421876,-0.001129150390625,-0.03567904233932495,-0.025804009288549423
1714858359460653300,8.4556533203125,0.0035982131958007812,-0.09163696318864822,-0.10072015225887299
1714858359470602800,8.465602783203124,0.00824737548828125,-0.11370145529508591,-0.15544641017913818
1714858359480552200,8.47555224609375,-0.0013065338134765625,-0.09772877395153046,-0.185716912150383
1714858359490502000,8.485501953125,0.008131980895996094,-0.08202230930328369,-0.16379457712173462
1714858359500451300,8.495451416015625,0.00328826904296875,-0.05245181545615196,-0.10927743464708328
1714858359510400800,8.50540087890625,0.0032339096069335938,0.004984389990568161,-0.02741672843694687
1714858359520350200,8.51535009765625,0.017305374145507812,0.047230567783117294,0.06249622255563736
1714858359530299600,8.525299560546875,0.007599830627441406,0.09829603880643845,0.12265904992818832
1714858359540249000,8.5352490234375,0.007472038269042969,0.12036433815956116,0.1582755595445633
1714858359550198800,8.54519873046875,0.0026378631591796875,0.1325400471687317,0.1696479618549347
1714858359560148200,8.555148193359376,0.012011528015136719,0.11615508794784546,0.15739397704601288
1714858359570097700,8.56509765625,0.011811256408691406,0.09544093161821365,0.10296681523323059
1714858359580047000,8.575047119140624,0.016323089599609375,0.0702584758400917,0.04473952576518059
1714858359589996500,8.58499658203125,0.006633758544921875,0.04078775644302368,-0.017225198447704315
1714858359599946000,8.594946044921874,0.0018148422241210938,0.007099620997905731,-0.06403137743473053
1714858359609895400,8.6048955078125,-0.007632255554199219,-0.0165029838681221,-0.10063955187797546
1714858359619845000,8.61484521484375,0.0019121170043945312,-0.02098468691110611,-0.12261873483657837
1714858359629794600,8.624794677734375,0.0018815994262695312,-0.030207179486751556,-0.12529170513153076
1714858359639744000,8.634743896484375,0.0159759521484375,-0.04387766867876053,-0.10908504575490952
1714858359649693400,8.644693359375,0.020418167114257812,-0.052611708641052246,-0.0837312862277031
1714858359659643000,8.654642822265625,0.010662078857421875,-0.07532741129398346,-0.05869524925947189
1714858359669592300,8.66459228515625,0.010484695434570312,-0.07401532679796219,-0.024765513837337494
1714858359679541800,8.674541748046876,0.010310173034667969,-0.07272510975599289,0.008598752319812775
1714858359689491500,8.684491455078126,0.0148468017578125,-0.06674706190824509,0.03199044615030289
1714858359699441000,8.69444091796875,0.009890556335449219,-0.0373249314725399,0.05509917438030243
1714858359709390300,8.704390380859374,0.009726524353027344,0.010228727012872696,0.07300791889429092
1714858359719339800,8.71433984375,-0.0045604705810546875,0.05238746851682663,0.0765986368060112
1714858359729289200,8.724289306640625,0.00022411346435546875,0.09384425729513168,0.07531531900167465
1714858359739239000,8.734239013671875,0.00022029876708984375,0.12048429995775223,0.0646362230181694
1714858359749188400,8.744188232421875,0.004925727844238281,0.1325538605451584,0.03069770708680153
1714858359759137800,8.7541376953125,0.0001354217529296875,0.11156833916902542,-0.002675160765647888
1714858359769087500,8.76408740234375,0.000133514404296875,0.06738824397325516,-0.05432766675949097
1714858359779037000,8.774036865234375,0.004839897155761719,0.023945145308971405,-0.10051622241735458
1714858359788986400,8.783986328125,0.0000514984130859375,-0.023590154945850372,-0.11757863312959671
1714858359798936000,8.79393603515625,0.00005054473876953125,-0.07033254206180573,-0.1203363761305809
1714858359808885500,8.803885498046874,0.009467124938964844,-0.0974607989192009,-0.09008724242448807
1714858359818835000,8.8138349609375,0.01872539520263672,-0.10990336537361145,-0.04632125794887543
1714858359828784600,8.82378466796875,0.023120880126953125,-0.08917837589979172,0.01554964855313301
1714858359838734000,8.833734130859375,0.018027305603027344,-0.054780036211013794,0.08120352029800415
1714858359848683800,8.843683837890625,0.022434234619140625,-0.006829213351011276,0.13153111934661865
1714858359858633200,8.85363330078125,0.0079345703125,0.021487310528755188,0.1528739184141159
1714858359868582700,8.863582763671875,0.007802009582519531,0.0540391281247139,0.1456080973148346
1714858359878532400,8.873532470703125,0.012380599975585938,0.06721476465463638,0.11021241545677185
1714858359888481800,8.883481689453125,0.012174606323242188,0.061335138976573944,0.04715368524193764
1714858359898431200,8.89343115234375,0.0025548934936523438,0.055660463869571686,-0.010144803673028946
1714858359908381000,8.903380859375,-0.0021963119506835938,0.031139709055423737,-0.061779752373695374
1714858359918330400,8.913330322265624,-0.0068683624267578125,0.02596890926361084,-0.10784480720758438
1714858359928279800,8.92327978515625,0.0026636123657226562,0.020884931087493896,-0.12018122524023056
1714858359938229500,8.9332294921875,0.0026187896728515625,0.00636359304189682,-0.10876759886741638
1714858359948179000,8.943178955078125,0.002574920654296875,-0.003207102417945862,-0.09754417836666107
1714858359958128400,8.95312841796875,0.011949539184570312,-0.0032025352120399475,-0.05354910343885422
1714858359968078000,8.963078125,0.011750221252441406,-0.007906652987003326,-0.02441307157278061
1714858359978027500,8.973027587890625,0.020972251892089844,-0.003221459686756134,0.023071743547916412
1714858359987977200,8.982977294921875,0.006497383117675781,-0.02675965055823326,0.04622215777635574
1714858359997926700,8.9929267578125,0.015806198120117188,-0.04038204997777939,0.05025863274931908
1714858360007876000,9.0028759765625,0.015542984008789062,-0.0585915669798851,0.03999648243188858
1714858360017825800,9.01282568359375,0.015283584594726562,-0.048246730118989944,0.04873904958367348
1714858360027775200,9.022775146484374,0.010319709777832031,-0.04738379642367363,0.03368804231286049
1714858360037724700,9.032724609375,0.019563674926757812,-0.018283672630786896,0.033013660460710526
1714858360047674400,9.04267431640625,0.0051116943359375,0.005517251789569855,0.02774890512228012
1714858360057623800,9.052623779296875,-0.004390716552734375,0.03363008052110672,0.01315470039844513
1714858360067573200,9.0625732421875,0.005099296569824219,0.06137927621603012,-0.0010913535952568054
1714858360077523000,9.07252294921875,0.00030612945556640625,0.07453951239585876,-0.010498374700546265
1714858360087472400,9.082472412109375,0.009716987609863281,0.059228137135505676,-0.029272831976413727
1714858360097421800,9.092421875,0.0001392364501953125,0.04866865277290344,-0.05233597755432129
1714858360107371500,9.10237158203125,0.004845619201660156,0.01966334879398346,-0.05147175490856171
1714858360117321000,9.112321044921876,0.004764556884765625,0.00045164674520492554,-0.06474847346544266
1714858360127270700,9.122270751953126,0.009393692016601562,-0.018439151346683502,-0.05426018685102463
1714858360137220000,9.13222021484375,0.004528999328613281,-0.03230505436658859,-0.02511083334684372
1714858360147169500,9.14216943359375,0.009161949157714844,-0.04123198986053467,0.003551952540874481
1714858360157119200,9.152119140625,0.0137176513671875,-0.017049238085746765,0.031737759709358215
1714858360167068700,9.162068603515625,0.018198013305664062,-0.007395341992378235,0.059347495436668396
1714858360177018000,9.17201806640625,0.008477210998535156,0.011514842510223389,0.07707986235618591
1714858360186967800,9.1819677734375,0.013043403625488281,0.020797550678253174,0.06626365333795547
1714858360196917200,9.191917236328125,0.0034084320068359375,0.020402051508426666,0.051025427877902985
1714858360206866700,9.20186669921875,0.012768745422363281,0.010595276951789856,0.01720605045557022
1714858360216816400,9.21181640625,0.0031385421752929688,0.01036914438009262,-0.011341080069541931
1714858360226765800,9.221765869140626,0.0030870437622070312,-0.008686929941177368,-0.03930537402629852
1714858360236715300,9.23171533203125,-0.0016727447509765625,-0.027425412088632584,-0.07161850482225418
1714858360246665000,9.2416650390625,0.012480735778808594,-0.01749299466609955,-0.07514075934886932
1714858360256614400,9.251614501953124,0.012272834777832031,-0.01724962145090103,-0.06458485126495361
1714858360266564000,9.261564208984375,0.012068748474121094,-0.007592387497425079,-0.035263434052467346
1714858360276513500,9.271513427734375,0.007159233093261719,0.016135282814502716,-0.011140033602714539
1714858360286463000,9.281462890625,0.0023317337036132812,0.015818186104297638,0.007872723042964935
1714858360296412400,9.291412353515625,0.002292633056640625,0.034340761601924896,0.026568595319986343
1714858360306361900,9.30136181640625,0.01638031005859375,0.0338258296251297,0.04024352878332138
1714858360316311300,9.311311279296875,0.02081584930419922,0.014379486441612244,0.05369129031896591
1714858360326261000,9.321260986328125,0.025178909301757812,0.00938233733177185,0.04347752034664154
1714858360336210400,9.33121044921875,0.010632514953613281,-0.009444646537303925,0.023910459131002426
1714858360346159900,9.341159912109376,0.015164375305175781,-0.01404402032494545,-0.0047469362616539
1714858360356109300,9.351109375,0.0054950714111328125,-0.00925588607788086,-0.023509524762630463
1714858360366058800,9.361058837890624,0.005404472351074219,-0.01867334544658661,-0.01841641217470169
1714858360376008200,9.37100830078125,0.014731407165527344,-0.008993126451969147,-0.013408191502094269
1714858360385958000,9.3809580078125,0.0003604888916015625,0.005235068500041962,-0.022608481347560883
1714858360395907300,9.3909072265625,0.005062103271484375,0.009914569556713104,-0.012928135693073273
1714858360405856800,9.400856689453125,0.019103050231933594,0.009807474911212921,0.00622076541185379
1714858360415806200,9.41080615234375,0.009367942810058594,0.009595111012458801,0.0014004260301589966
1714858360425755600,9.420755615234375,0.0045032501220703125,-0.000030197203159332275,-0.003338821232318878
1714858360435705000,9.430705078125,0.009138107299804688,-0.00007859617471694946,-0.007893472909927368
1714858360445654500,9.440654541015626,-0.000431060791015625,-0.014145631343126297,-0.007769972085952759
1714858360455604200,9.450604248046876,-0.000423431396484375,0.0001677200198173523,-0.002939186990261078
1714858360465553700,9.4605537109375,0.004292488098144531,0.00011745095252990723,0.006520427763462067
1714858360475503000,9.470503173828124,0.013638496398925781,0.00017436593770980835,0.006405189633369446
1714858360485452500,9.48045263671875,0.013411521911621094,0.018957652151584625,0.01099972054362297
1714858360495402000,9.490402099609375,0.008479118347167969,0.02801068127155304,0.02493486925959587
1714858360505351400,9.500351318359375,0.00833892822265625,0.041622139513492584,0.024619106203317642
1714858360515301000,9.510301025390625,0.0034914016723632812,0.036278001964092255,0.01949288696050644
1714858360525250600,9.52025048828125,0.0034332275390625,0.021499380469322205,0.005034908652305603
1714858360535200000,9.530199951171875,0.0033779144287109375,0.011569298803806305,-0.009075738489627838
1714858360545149400,9.5401494140625,-0.0013856887817382812,-0.012215405702590942,-0.013534791767597198
1714858360555099000,9.550098876953125,0.008054733276367188,-0.03560300171375275,-0.02744229882955551
1714858360565048300,9.56004833984375,0.007921218872070312,-0.04929068684577942,-0.036410197615623474
1714858360574997800,9.569997802734376,0.012497901916503906,-0.048411011695861816,-0.031102068722248077
1714858360584947500,9.579947509765624,0.012290000915527344,-0.047652363777160645,-0.01175662875175476
1714858360594897000,9.58989697265625,0.0026683807373046875,-0.023362651467323303,-0.0021500512957572937
1714858360604846300,9.599846435546874,0.0073337554931640625,-0.004292726516723633,0.021422192454338074
1714858360614795800,9.609795654296875,0.011919975280761719,0.0005462989211082458,0.03047577291727066
1714858360624745200,9.6197451171875,0.011721611022949219,0.028846226632595062,0.029959790408611298
1714858360634694700,9.629694580078125,0.006817817687988281,0.0378401055932045,0.03416099771857262
1714858360644644400,9.639644287109375,-0.0027132034301757812,0.03255831450223923,0.02416638657450676
1714858360654593800,9.64959375,0.002040863037109375,0.036781735718250275,0.009629752486944199
1714858360664543200,9.659543212890625,0.0067157745361328125,0.026808984577655792,-0.009373202919960022
1714858360674492700,9.66949267578125,0.0018949508666992188,0.007585957646369934,-0.032767266035079956
1714858360684442000,9.679442138671876,0.006572723388671875,-0.00200517475605011,-0.017995506525039673
1714858360694391600,9.6893916015625,0.0017557144165039062,-0.006834931671619415,-0.022411487996578217
1714858360704341000,9.699341064453124,-0.00298309326171875,-0.006662845611572266,-0.012734457850456238
1714858360714290700,9.709290771484374,0.001773834228515625,-0.0017850324511528015,-0.007927298545837402
1714858360724240100,9.719240234375,0.0064525604248046875,-0.011220678687095642,-0.0030938833951950073
1714858360734189600,9.729189453125,0.0157623291015625,-0.006373994052410126,0.0016582012176513672
1714858360744139000,9.739138916015625,0.020208358764648438,-0.011025287210941315,0.02045688033103943
1714858360754088400,9.74908837890625,0.010454177856445312,-0.006181858479976654,0.015399262309074402
1714858360764038100,9.7590380859375,0.0055713653564453125,-0.006128460168838501,0.019842371344566345
1714858360773987600,9.768987548828125,0.010187149047851562,-0.010677449405193329,0.014794990420341492
1714858360783937000,9.77893701171875,0.005309104919433594,-0.0057341232895851135,0.009830985218286514
1714858360793886700,9.78888671875,0.009929656982421875,0.008438318967819214,-0.004466719925403595
1714858360803836200,9.798836181640626,0.0050563812255859375,0.017665952444076538,-0.004293948411941528
1714858360813785900,9.808785888671874,0.014389991760253906,0.02663339674472809,0.00047813355922698975
1714858360823735300,9.8187353515625,0.004733085632324219,0.026141293346881866,0.0004628598690032959
1714858360833684700,9.828684814453124,-0.00005340576171875,0.02555099129676819,0.0051564425230026245
1714858360843634400,9.838634521484375,-0.0047607421875,0.029785528779029846,0.00035459548234939575
1714858360853584000,9.848583984375,0.000026702880859375,0.015220791101455688,-0.009076595306396484
1714858360863533300,9.858533203125,0.00002574920654296875,0.005608096718788147,-0.008932620286941528
1714858360873483000,9.86848291015625,0.009443283081054688,-0.008766479790210724,-0.013500429689884186
1714858360883432400,9.878432373046875,0.00928497314453125,-0.022687986493110657,-0.01338912546634674
1714858360893382000,9.8883818359375,0.004421234130859375,-0.031775977462530136,-0.022591255605220795
1714858360903331600,9.89833154296875,-0.019195556640625,-0.03611030429601669,-0.017620615661144257
1714858360913281000,9.908281005859376,0.009365081787109375,-0.03095449134707451,0.013817138969898224
1714858360923230500,9.91823046875,0.05629920959472656,-0.016361016780138016,0.023635152727365494
1714858360933180200,9.92818017578125,-0.010553359985351562,0.012115024030208588,0.01456160843372345
1714858360943129600,9.938129638671874,0.008458137512207031,0.011864885687828064,0.028543807566165924
1714858360953079300,9.948079345703125,-0.0011005401611328125,0.011724621057510376,0.02335139736533165
1714858360963028700,9.95802880859375,-0.0010805130004882812,0.03031468391418457,0.027875542640686035
1714858360972978200,9.967978271484375,0.008355140686035156,0.025050543248653412,-0.000850282609462738
1714858360982928000,9.977927978515625,0.0035076141357421875,0.01987551897764206,-0.005552791059017181
1714858360992877300,9.987877197265625,0.003448486328125,0.010184556245803833,-0.03371991962194443
1714858361002826800,9.99782666015625,-0.0013179779052734375,0.0005486980080604553,-0.033272430300712585
1714858361012776400,10.0077763671875,-0.0012960433959960938,-0.00892656296491623,-0.03743458539247513
1714858361022726000,10.017725830078126,-0.010691642761230469,-0.013534605503082275,-0.03210937976837158
1714858361032675300,10.02767529296875,-0.0010976791381835938,-0.008542239665985107,-0.02216433733701706
1714858361042625000,10.037625,0.0036296844482421875,-0.013156689703464508,-0.00307425856590271
1714858361052574500,10.047574462890625,0.0035686492919921875,-0.01298491656780243,0.015592023730278015
1714858361062524000,10.05752392578125,-0.0012006759643554688,-0.0032931268215179443,0.020033448934555054
1714858361072473600,10.0674736328125,0.008235931396484375,0.001527830958366394,0.02910865843296051
1714858361082423000,10.077423095703125,-0.0060272216796875,-0.0032544583082199097,0.02861621230840683
1714858361092372700,10.087372802734375,0.003490447998046875,0.006168052554130554,0.032839786261320114
1714858361102322200,10.097322265625,-0.0012769699096679688,0.006124123930931091,0.036994531750679016
1714858361112271600,10.107271728515625,-0.0012559890747070312,0.005973145365715027,0.036369867622852325
1714858361122221300,10.11722119140625,0.0034732818603515625,0.010533958673477173,0.02633921056985855
1714858361132170800,10.127170654296876,0.0034151077270507812,0.0008922964334487915,0.011659927666187286
1714858361142120200,10.1371201171875,0.0033578872680664062,-0.013297267258167267,0.0020403191447257996
1714858361152070000,10.14706982421875,0.0033006668090820312,-0.022435322403907776,-0.00741896778345108
1714858361162019300,10.157019287109375,0.007953643798828125,-0.02671181410551071,-0.007302619516849518
1714858361171968800,10.16696875,0.00311279296875,-0.016899000853300095,-0.0213155597448349
1714858361181918500,10.17691845703125,0.0077686309814453125,-0.016559835523366928,-0.01625978946685791
1714858361191868000,10.186867919921875,0.007637977600097656,0.0026080533862113953,-0.02552047371864319
1714858361201817300,10.1968173828125,0.007511138916015625,0.007223591208457947,-0.03452117741107941
