time,seconds_elapsed,z,y,x
1714858351093130800,0.088130859375,10.194510459899902,0.06224924325942993,-0.10534487664699554
1714858351103080200,0.098080078125,10.213664054870605,0.06703764945268631,-0.10055647045373917
1714858351113029600,0.108029541015625,10.199298858642578,0.07661445438861847,-0.08619125932455063
1714858351122979000,0.11797900390625,10.204087257385254,0.07661445438861847,-0.090979665517807
1714858351132928300,0.12792822265625,10.204087257385254,0.06703764945268631,-0.09576806426048279
1714858351142877700,0.137877685546875,10.199298858642578,0.07182604819536209,-0.090979665517807
1714858351152827100,0.1478271484375,10.20887565612793,0.07182604819536209,-0.08140286058187485
1714858351162776600,0.157776611328125,10.199298858642578,0.08619125932455063,-0.06703764945268631
1714858351172726000,0.16772607421875,10.20887565612793,0.08619125932455063,-0.06703764945268631
1714858351182675500,0.177675537109375,10.199298858642578,0.08140286058187485,-0.06224924325942993
1714858351192625000,0.187625,10.194510459899902,0.09576806426048279,-0.07182604819536209
1714858351202574300,0.19757421875,10.199298858642578,0.08619125932455063,-0.08140286058187485
1714858351212523800,0.207523681640625,10.204087257385254,0.08140286058187485,-0.08140286058187485
1714858351222473200,0.21747314453125,10.199298858642578,0.06703764945268631,-0.08619125932455063
1714858351232422700,0.227422607421875,10.199298858642578,0.07182604819536209,-0.090979665517807
1714858351242372000,0.2373720703125,10.194510459899902,0.07661445438861847,-0.090979665517807
1714858351252321500,0.247321533203125,10.199298858642578,0.07182604819536209,-0.08140286058187485
1714858351262271000,0.25727099609375,10.204087257385254,0.07661445438861847,-0.08619125932455063
1714858351272220400,0.267220458984375,10.199298858642578,0.07661445438861847,-0.090979665517807
1714858351282169900,0.277169921875,10.199298858642578,0.08140286058187485,-0.08140286058187485
1714858351292119300,0.287119384765625,10.199298858642578,0.08140286058187485,-0.08619125932455063
1714858351302068700,0.29706884765625,10.194510459899902,0.10055647045373917,-0.090979665517807
1714858351312018200,0.30701806640625,10.199298858642578,0.08140286058187485,-0.10534487664699554
1714858351321967600,0.316967529296875,10.204087257385254,0.08619125932455063,-0.09576806426048279
1714858351331916800,0.326916748046875,10.204087257385254,0.07661445438861847,-0.10055647045373917
1714858351341866200,0.3368662109375,10.199298858642578,0.06703764945268631,-0.09576806426048279
1714858351351815700,0.346815673828125,10.20887565612793,0.06224924325942993,-0.10534487664699554
1714858351361765000,0.35676513671875,10.204087257385254,0.06224924325942993,-0.090979665517807
1714858351371714600,0.366714599609375,10.204087257385254,0.07182604819536209,-0.08619125932455063
1714858351381664000,0.3766640625,10.204087257385254,0.07182604819536209,-0.08140286058187485
1714858351391613400,0.386613525390625,10.204087257385254,0.07182604819536209,-0.08619125932455063
1714858351401563000,0.39656298828125,10.194510459899902,0.07661445438861847,-0.08619125932455063
1714858351411512300,0.40651220703125,10.189722061157227,0.07661445438861847,-0.07661445438861847
1714858351421461800,0.416461669921875,10.194510459899902,0.08140286058187485,-0.08140286058187485
1714858351431411500,0.426411376953125,10.204087257385254,0.09576806426048279,-0.08619125932455063
1714858351441361000,0.43636083984375,10.194510459899902,0.08619125932455063,-0.08619125932455063
1714858351451310300,0.446310302734375,10.204087257385254,0.08619125932455063,-0.10055647045373917
1714858351461259800,0.456259765625,10.20887565612793,0.08619125932455063,-0.10534487664699554
1714858351471209200,0.466209228515625,10.20887565612793,0.08619125932455063,-0.09576806426048279
1714858351481158700,0.47615869140625,10.204087257385254,0.08140286058187485,-0.08140286058187485
1714858351491108000,0.486108154296875,10.194510459899902,0.08140286058187485,-0.07661445438861847
1714858351501057800,0.496057861328125,10.194510459899902,0.08140286058187485,-0.08619125932455063
1714858351511007200,0.50600732421875,10.189722061157227,0.07661445438861847,-0.07182604819536209
1714858351520956700,0.515956787109375,10.204087257385254,0.08140286058187485,-0.07661445438861847
1714858351530906000,0.525906005859375,10.204087257385254,0.08140286058187485,-0.07661445438861847
1714858351540855600,0.53585546875,10.20887565612793,0.08140286058187485,-0.07182604819536209
1714858351550805000,0.545804931640625,10.20887565612793,0.07661445438861847,-0.07661445438861847
1714858351560754700,0.555754638671875,10.199298858642578,0.08140286058187485,-0.08140286058187485
1714858351570704100,0.5657041015625,10.194510459899902,0.08140286058187485,-0.08140286058187485
1714858351580653600,0.575653564453125,10.199298858642578,0.08140286058187485,-0.08140286058187485
1714858351590603000,0.58560302734375,10.20887565612793,0.090979665517807,-0.08619125932455063
1714858351600552400,0.595552490234375,10.199298858642578,0.08140286058187485,-0.090979665517807
1714858351610502000,0.605501953125,10.20887565612793,0.06703764945268631,-0.09576806426048279
1714858351620451300,0.615451416015625,10.204087257385254,0.07661445438861847,-0.11013327538967133
1714858351630401000,0.625401123046875,10.204087257385254,0.08140286058187485,-0.11013327538967133
1714858351640350500,0.6353505859375,10.194510459899902,0.07661445438861847,-0.10534487664699554
1714858351650300000,0.6452998046875,10.199298858642578,0.07661445438861847,-0.10055647045373917
1714858351660249300,0.655249267578125,10.189722061157227,0.07182604819536209,-0.10055647045373917
1714858351670198800,0.66519873046875,10.204087257385254,0.08140286058187485,-0.09576806426048279
1714858351680148200,0.675148193359375,10.20887565612793,0.07182604819536209,-0.08140286058187485
1714858351690098000,0.685097900390625,10.199298858642578,0.07661445438861847,-0.08619125932455063
1714858351700047400,0.69504736328125,10.20887565612793,0.07661445438861847,-0.07661445438861847
1714858351709996800,0.704996826171875,10.194510459899902,0.08140286058187485,-0.06224924325942993
1714858351719946200,0.7149462890625,10.204087257385254,0.08619125932455063,-0.06224924325942993
1714858351729895700,0.724895751953125,10.199298858642578,0.08140286058187485,-0.06703764945268631
1714858351739845000,0.73484521484375,10.189722061157227,0.08619125932455063,-0.07182604819536209
1714858351749794600,0.744794677734375,10.199298858642578,0.08140286058187485,-0.090979665517807
1714858351759744300,0.754744140625,10.204087257385254,0.06703764945268631,-0.10055647045373917
1714858351769693700,0.764693603515625,10.204087257385254,0.07182604819536209,-0.11013327538967133
1714858351779643100,0.77464306640625,10.189722061157227,0.07182604819536209,-0.1149216815829277
1714858351789592600,0.784592529296875,10.18493366241455,0.07661445438861847,-0.11013327538967133
1714858351799542000,0.7945419921875,10.204087257385254,0.07661445438861847,-0.11013327538967133
1714858351809491500,0.804491455078125,10.194510459899902,0.07661445438861847,-0.10055647045373917
1714858351819441200,0.814441162109375,10.194510459899902,0.08619125932455063,-0.07661445438861847
1714858351829390600,0.824390625,10.199298858642578,0.08619125932455063,-0.06224924325942993
1714858351839340000,0.834340087890625,10.199298858642578,0.08140286058187485,-0.06224924325942993
1714858351849289500,0.84428955078125,10.204087257385254,0.08619125932455063,-0.06224924325942993
1714858351859239000,0.854239013671875,10.204087257385254,0.07661445438861847,-0.07661445438861847
1714858351869188400,0.864188232421875,10.20887565612793,0.08619125932455063,-0.07661445438861847
1714858351879137800,0.8741376953125,10.199298858642578,0.07661445438861847,-0.08619125932455063
1714858351889087500,0.88408740234375,10.20887565612793,0.07182604819536209,-0.090979665517807
1714858351899037000,0.894036865234375,10.204087257385254,0.08140286058187485,-0.09576806426048279
1714858351908986400,0.903986328125,10.194510459899902,0.08619125932455063,-0.08619125932455063
1714858351918935800,0.913935791015625,10.194510459899902,0.08619125932455063,-0.090979665517807
1714858351928885200,0.92388525390625,10.199298858642578,0.09576806426048279,-0.08140286058187485
1714858351938834700,0.933834716796875,10.194510459899902,0.09576806426048279,-0.08140286058187485
1714858351948784400,0.943784423828125,10.204087257385254,0.07661445438861847,-0.07182604819536209
1714858351958733800,0.95373388671875,10.194510459899902,0.06703764945268631,-0.08140286058187485
1714858351968683300,0.963683349609375,10.204087257385254,0.06224924325942993,-0.07182604819536209
1714858351978632700,0.9736328125,10.204087257385254,0.05746084079146385,-0.08140286058187485
1714858351988582100,0.98358203125,10.204087257385254,0.06703764945268631,-0.08140286058187485
1714858351998531600,0.993531494140625,10.199298858642578,0.07182604819536209,-0.07661445438861847
1714858352008481000,1.00348095703125,10.199298858642578,0.06224924325942993,-0.08619125932455063
1714858352018430700,1.0134306640625,10.199298858642578,0.07182604819536209,-0.07661445438861847
1714858352028380200,1.023380126953125,10.199298858642578,0.08140286058187485,-0.08619125932455063
1714858352038329600,1.03332958984375,10.194510459899902,0.08140286058187485,-0.090979665517807
1714858352048279000,1.043279052734375,10.199298858642578,0.08140286058187485,-0.09576806426048279
1714858352058228500,1.053228515625,10.194510459899902,0.08140286058187485,-0.09576806426048279
1714858352068178000,1.063177978515625,10.189722061157227,0.08140286058187485,-0.090979665517807
1714858352078127600,1.073127685546875,10.194510459899902,0.08619125932455063,-0.09576806426048279
1714858352088077000,1.0830771484375,10.199298858642578,0.07182604819536209,-0.10534487664699554
1714858352098026500,1.093026611328125,10.189722061157227,0.07182604819536209,-0.1149216815829277
1714858352107976000,1.102975830078125,10.194510459899902,0.07661445438861847,-0.10534487664699554
1714858352117925400,1.11292529296875,10.189722061157227,0.10055647045373917,-0.08619125932455063
1714858352127874800,1.122874755859375,10.180145263671875,0.09576806426048279,-0.07661445438861847
1714858352137824300,1.13282421875,10.189722061157227,0.09576806426048279,-0.06224924325942993
1714858352147774000,1.14277392578125,10.204087257385254,0.08619125932455063,-0.07182604819536209
1714858352157723400,1.152723388671875,10.199298858642578,0.08140286058187485,-0.06703764945268631
1714858352167672800,1.1626728515625,10.199298858642578,0.07182604819536209,-0.07661445438861847
1714858352177622300,1.172622314453125,10.194510459899902,0.06703764945268631,-0.090979665517807
1714858352187571700,1.18257177734375,10.189722061157227,0.06703764945268631,-0.08140286058187485
1714858352197521200,1.192521240234375,10.194510459899902,0.06224924325942993,-0.08619125932455063
1714858352207470600,1.202470703125,10.194510459899902,0.06224924325942993,-0.08140286058187485
1714858352217420300,1.212420166015625,10.199298858642578,0.06224924325942993,-0.06703764945268631
1714858352227369700,1.22236962890625,10.199298858642578,0.07182604819536209,-0.07661445438861847
1714858352237319200,1.232319091796875,10.199298858642578,0.08140286058187485,-0.07661445438861847
1714858352247268600,1.2422685546875,10.204087257385254,0.08619125932455063,-0.090979665517807
1714858352257218000,1.252218017578125,10.189722061157227,0.090979665517807,-0.090979665517807
1714858352267167500,1.26216748046875,10.194510459899902,0.090979665517807,-0.09576806426048279
1714858352277117200,1.2721171875,10.18493366241455,0.09576806426048279,-0.090979665517807
1714858352287066600,1.282066650390625,10.199298858642578,0.090979665517807,-0.10055647045373917
1714858352297016000,1.29201611328125,10.194510459899902,0.09576806426048279,-0.11013327538967133
1714858352306965500,1.301965576171875,10.199298858642578,0.08619125932455063,-0.10055647045373917
1714858352316915000,1.3119150390625,10.199298858642578,0.07661445438861847,-0.08619125932455063
1714858352326864400,1.321864501953125,10.199298858642578,0.090979665517807,-0.07661445438861847
1714858352336813800,1.331813720703125,10.199298858642578,0.090979665517807,-0.07182604819536209
1714858352346763500,1.341763427734375,10.194510459899902,0.08619125932455063,-0.06703764945268631
1714858352356713000,1.351712890625,10.194510459899902,0.08140286058187485,-0.06224924325942993
1714858352366662400,1.361662353515625,10.204087257385254,0.08140286058187485,-0.06703764945268631
1714858352376611800,1.37161181640625,10.199298858642578,0.06703764945268631,-0.07182604819536209
1714858352386561300,1.381561279296875,10.194510459899902,0.06703764945268631,-0.08140286058187485
1714858352396510700,1.3915107421875,10.204087257385254,0.06703764945268631,-0.10055647045373917
1714858352406460400,1.40146044921875,10.194510459899902,0.06224924325942993,-0.10055647045373917
1714858352416409900,1.411409912109375,10.194510459899902,0.06224924325942993,-0.10055647045373917
1714858352426359300,1.421359375,10.194510459899902,0.06703764945268631,-0.10055647045373917
1714858352436308700,1.431308837890625,10.194510459899902,0.07661445438861847,-0.09576806426048279
1714858352446258200,1.441258056640625,10.194510459899902,0.08619125932455063,-0.08619125932455063
1714858352456207600,1.45120751953125,10.199298858642578,0.09576806426048279,-0.08140286058187485
1714858352466157000,1.461156982421875,10.204087257385254,0.09576806426048279,-0.07661445438861847
1714858352476106800,1.471106689453125,10.204087257385254,0.09576806426048279,-0.05746084079146385
1714858352486056200,1.48105615234375,10.194510459899902,0.09576806426048279,-0.06224924325942993
1714858352496005600,1.491005615234375,10.199298858642578,0.090979665517807,-0.08140286058187485
1714858352505955000,1.500955078125,10.199298858642578,0.08619125932455063,-0.08619125932455063
1714858352515904500,1.510904541015625,10.204087257385254,0.07182604819536209,-0.090979665517807
1714858352525854000,1.52085400390625,10.204087257385254,0.07182604819536209,-0.08619125932455063
1714858352535803600,1.5308037109375,10.204087257385254,0.06224924325942993,-0.10055647045373917
1714858352545753000,1.540753173828125,10.199298858642578,0.06703764945268631,-0.090979665517807
1714858352555702500,1.55070263671875,10.189722061157227,0.07182604819536209,-0.090979665517807
1714858352565652000,1.56065185546875,10.199298858642578,0.08140286058187485,-0.08619125932455063
1714858352575601400,1.570601318359375,10.18493366241455,0.07661445438861847,-0.08140286058187485
1714858352585550800,1.58055078125,10.199298858642578,0.08140286058187485,-0.08619125932455063
1714858352595500300,1.590500244140625,10.194510459899902,0.08140286058187485,-0.090979665517807
1714858352605450000,1.600449951171875,10.199298858642578,0.08619125932455063,-0.090979665517807
1714858352615399400,1.6103994140625,10.204087257385254,0.090979665517807,-0.09576806426048279
1714858352625348900,1.620348876953125,10.189722061157227,0.090979665517807,-0.07661445438861847
1714858352635298300,1.63029833984375,10.189722061157227,0.090979665517807,-0.07182604819536209
1714858352645247700,1.640247802734375,10.199298858642578,0.08619125932455063,-0.06703764945268631
1714858352655197200,1.650197265625,10.199298858642578,0.07182604819536209,-0.06703764945268631
1714858352665147000,1.66014697265625,10.194510459899902,0.06703764945268631,-0.07182604819536209
1714858352675096300,1.670096435546875,10.199298858642578,0.07182604819536209,-0.07182604819536209
1714858352685045800,1.680045654296875,10.199298858642578,0.06703764945268631,-0.07661445438861847
1714858352694995200,1.6899951171875,10.189722061157227,0.06703764945268631,-0.08619125932455063
1714858352704944600,1.699944580078125,10.189722061157227,0.05746084079146385,-0.090979665517807
1714858352714894000,1.70989404296875,10.194510459899902,0.05746084079146385,-0.10534487664699554
1714858352724843500,1.719843505859375,10.189722061157227,0.08619125932455063,-0.090979665517807
1714858352734793200,1.729793212890625,10.199298858642578,0.090979665517807,-0.07661445438861847
1714858352744742700,1.73974267578125,10.194510459899902,0.08619125932455063,-0.07182604819536209
1714858352754692000,1.749692138671875,10.189722061157227,0.10534487664699554,-0.05267243832349777
1714858352764641500,1.7596416015625,10.199298858642578,0.09576806426048279,-0.05746084079146385
1714858352774591000,1.769591064453125,10.204087257385254,0.10055647045373917,-0.06703764945268631
1714858352784540400,1.77954052734375,10.204087257385254,0.10534487664699554,-0.07661445438861847
1714858352794490000,1.789489990234375,10.194510459899902,0.08619125932455063,-0.090979665517807
1714858352804439600,1.799439453125,10.199298858642578,0.07182604819536209,-0.09576806426048279
1714858352814389000,1.809388916015625,10.194510459899902,0.06703764945268631,-0.10534487664699554
1714858352824338400,1.81933837890625,10.199298858642578,0.06224924325942993,-0.11971008777618408
1714858352834287900,1.829287841796875,10.194510459899902,0.05267243832349777,-0.10534487664699554
1714858352844237300,1.8392373046875,10.194510459899902,0.06703764945268631,-0.090979665517807
1714858352854186800,1.849186767578125,10.194510459899902,0.07182604819536209,-0.07182604819536209
1714858352864136400,1.859136474609375,10.194510459899902,0.07182604819536209,-0.05746084079146385
1714858352874086000,1.8690859375,10.194510459899902,0.08140286058187485,-0.05746084079146385
1714858352884035300,1.879035400390625,10.20887565612793,0.08619125932455063,-0.05746084079146385
1714858352893984800,1.88898486328125,10.194510459899902,0.08619125932455063,-0.07661445438861847
1714858352903934200,1.898934326171875,10.204087257385254,0.08619125932455063,-0.08140286058187485
1714858352913883600,1.908883544921875,10.189722061157227,0.090979665517807,-0.08619125932455063
1714858352923833300,1.918833251953125,10.199298858642578,0.09576806426048279,-0.08619125932455063
1714858352933782800,1.92878271484375,10.189722061157227,0.090979665517807,-0.08619125932455063
1714858352943732200,1.938732177734375,10.199298858642578,0.090979665517807,-0.08619125932455063
1714858352953681700,1.948681640625,10.194510459899902,0.08619125932455063,-0.08140286058187485
1714858352963631000,1.958631103515625,10.194510459899902,0.08140286058187485,-0.09576806426048279
1714858352973580500,1.96858056640625,10.199298858642578,0.06703764945268631,-0.08619125932455063
1714858352983530000,1.978530029296875,10.204087257385254,0.05267243832349777,-0.09576806426048279
1714858352993479700,1.988479736328125,10.199298858642578,0.05267243832349777,-0.11013327538967133
1714858353003429000,1.99842919921875,10.204087257385254,0.05267243832349777,-0.10534487664699554
1714858353013378600,2.008378662109375,10.194510459899902,0.043095629662275314,-0.09576806426048279
1714858353023328000,2.018327880859375,10.199298858642578,0.06224924325942993,-0.090979665517807
1714858353033277400,2.02827734375,10.199298858642578,0.06703764945268631,-0.07661445438861847
1714858353043227000,2.038226806640625,10.199298858642578,0.07661445438861847,-0.07182604819536209
1714858353053176300,2.04817626953125,10.20887565612793,0.090979665517807,-0.05746084079146385
1714858353063126000,2.0581259765625,10.199298858642578,0.10534487664699554,-0.047884032130241394
1714858353073075500,2.068075439453125,10.194510459899902,0.1149216815829277,-0.05746084079146385
1714858353083025000,2.07802490234375,10.189722061157227,0.10534487664699554,-0.05267243832349777
1714858353092974300,2.087974365234375,10.204087257385254,0.10534487664699554,-0.06224924325942993
1714858353102923800,2.097923828125,10.189722061157227,0.09576806426048279,-0.07661445438861847
1714858353112873200,2.107873291015625,10.189722061157227,0.08140286058187485,-0.09576806426048279
1714858353122823000,2.117822998046875,10.199298858642578,0.07661445438861847,-0.10055647045373917
1714858353132772400,2.1277724609375,10.20887565612793,0.07661445438861847,-0.11013327538967133
1714858353142721800,2.1377216796875,10.199298858642578,0.07661445438861847,-0.10055647045373917
1714858353152671200,2.147671142578125,10.18493366241455,0.07182604819536209,-0.09576806426048279
1714858353162620700,2.15762060546875,10.194510459899902,0.07661445438861847,-0.090979665517807
1714858353172570000,2.167570068359375,10.194510459899902,0.08619125932455063,-0.08619125932455063
1714858353182519600,2.17751953125,10.194510459899902,0.08140286058187485,-0.06224924325942993
1714858353192469200,2.18746923828125,10.204087257385254,0.07661445438861847,-0.05746084079146385
1714858353202418700,2.197418701171875,10.204087257385254,0.07182604819536209,-0.05746084079146385
1714858353212368100,2.2073681640625,10.20887565612793,0.07182604819536209,-0.07661445438861847
1714858353222317600,2.217317626953125,10.194510459899902,0.06703764945268631,-0.08619125932455063
1714858353232267000,2.22726708984375,10.189722061157227,0.06703764945268631,-0.10055647045373917
1714858353242216400,2.237216552734375,10.189722061157227,0.08140286058187485,-0.09576806426048279
1714858353252166100,2.247166259765625,10.194510459899902,0.090979665517807,-0.09576806426048279
1714858353262115600,2.257115478515625,10.20887565612793,0.09576806426048279,-0.09576806426048279
1714858353272065000,2.26706494140625,10.194510459899902,0.10055647045373917,-0.08140286058187485
1714858353282014500,2.277014404296875,10.199298858642578,0.1149216815829277,-0.06703764945268631
1714858353291964000,2.2869638671875,10.199298858642578,0.1149216815829277,-0.06703764945268631
1714858353301913300,2.296913330078125,10.194510459899902,0.11013327538967133,-0.05746084079146385
1714858353311862800,2.30686279296875,10.199298858642578,0.090979665517807,-0.06224924325942993
1714858353321812500,2.3168125,10.189722061157227,0.07182604819536209,-0.07182604819536209
1714858353331762000,2.326761962890625,10.194510459899902,0.05267243832349777,-0.08619125932455063
1714858353341711400,2.33671142578125,10.199298858642578,0.047884032130241394,-0.09576806426048279
1714858353351660800,2.346660888671875,10.194510459899902,0.038307227194309235,-0.10055647045373917
1714858353361610200,2.3566103515625,10.194510459899902,0.043095629662275314,-0.08619125932455063
1714858353371559700,2.3665595703125,10.194510459899902,0.05746084079146385,-0.08140286058187485
1714858353381509400,2.37650927734375,10.194510459899902,0.07661445438861847,-0.08140286058187485
1714858353391458800,2.386458740234375,10.189722061157227,0.07661445438861847,-0.07661445438861847
1714858353401408300,2.396408203125,10.194510459899902,0.10055647045373917,-0.06703764945268631
1714858353411357700,2.406357666015625,10.189722061157227,0.10055647045373917,-0.07182604819536209
1714858353421307100,2.41630712890625,10.194510459899902,0.10534487664699554,-0.07661445438861847
1714858353431256600,2.426256591796875,10.199298858642578,0.090979665517807,-0.10055647045373917
1714858353441206000,2.4362060546875,10.204087257385254,0.08140286058187485,-0.11013327538967133
1714858353451155700,2.44615576171875,10.194510459899902,0.07661445438861847,-0.11013327538967133
1714858353461105200,2.456105224609375,10.204087257385254,0.08140286058187485,-0.10055647045373917
1714858353471054600,2.4660546875,10.199298858642578,0.08619125932455063,-0.11013327538967133
1714858353481004000,2.476004150390625,10.194510459899902,0.09576806426048279,-0.090979665517807
1714858353490953500,2.485953369140625,10.20887565612793,0.090979665517807,-0.08619125932455063
1714858353500903200,2.495903076171875,10.199298858642578,0.08619125932455063,-0.06224924325942993
1714858353510852600,2.5058525390625,10.189722061157227,0.08619125932455063,-0.05746084079146385
1714858353520802000,2.515802001953125,10.204087257385254,0.07661445438861847,-0.047884032130241394
1714858353530751700,2.525751708984375,10.204087257385254,0.07182604819536209,-0.06224924325942993
1714858353540701200,2.535701171875,10.199298858642578,0.06224924325942993,-0.07661445438861847
1714858353550650600,2.545650634765625,10.189722061157227,0.05267243832349777,-0.090979665517807
1714858353560600300,2.555600341796875,10.194510459899902,0.047884032130241394,-0.090979665517807
1714858353570549800,2.5655498046875,10.199298858642578,0.05746084079146385,-0.08619125932455063
1714858353580499200,2.575499267578125,10.194510459899902,0.07182604819536209,-0.07661445438861847
1714858353590449000,2.585448974609375,10.189722061157227,0.09576806426048279,-0.06224924325942993
1714858353600398300,2.5953984375,10.194510459899902,0.12449848651885986,-0.05746084079146385
1714858353610348000,2.60534814453125,10.194510459899902,0.1388636976480484,-0.047884032130241394
1714858353620297500,2.61529736328125,10.194510459899902,0.1388636976480484,-0.06224924325942993
1714858353630247000,2.625246826171875,10.189722061157227,0.1149216815829277,-0.08140286058187485
1714858353640196600,2.635196533203125,10.199298858642578,0.10055647045373917,-0.09576806426048279
1714858353650146000,2.64514599609375,10.199298858642578,0.07661445438861847,-0.1149216815829277
1714858353660095500,2.655095458984375,10.189722061157227,0.05746084079146385,-0.12449848651885986
1714858353670045200,2.665045166015625,10.199298858642578,0.05267243832349777,-0.12449848651885986
1714858353679994600,2.67499462890625,10.189722061157227,0.06224924325942993,-0.1149216815829277
1714858353689944000,2.684944091796875,10.20887565612793,0.06224924325942993,-0.09576806426048279
1714858353699893800,2.694893798828125,10.204087257385254,0.07182604819536209,-0.07661445438861847
1714858353709843200,2.70484326171875,10.20887565612793,0.08140286058187485,-0.05746084079146385
1714858353719792600,2.714792724609375,10.20887565612793,0.08140286058187485,-0.043095629662275314
1714858353729742300,2.724742431640625,10.20887565612793,0.08140286058187485,-0.033518824726343155
1714858353739691800,2.73469189453125,10.20887565612793,0.090979665517807,-0.043095629662275314
1714858353749641200,2.74464111328125,10.189722061157227,0.07661445438861847,-0.06224924325942993
1714858353759591000,2.7545908203125,10.199298858642578,0.06703764945268631,-0.07182604819536209
1714858353769540400,2.764540283203125,10.194510459899902,0.06224924325942993,-0.10534487664699554
1714858353779490000,2.774489990234375,10.213664054870605,0.06224924325942993,-0.10534487664699554
1714858353789439500,2.784439453125,10.199298858642578,0.06703764945268631,-0.11013327538967133
1714858353799389000,2.794388916015625,10.204087257385254,0.08619125932455063,-0.10055647045373917
1714858353809338600,2.804338623046875,10.199298858642578,0.090979665517807,-0.08140286058187485
1714858353819288000,2.8142880859375,10.199298858642578,0.10055647045373917,-0.07661445438861847
1714858353829237500,2.824237548828125,10.189722061157227,0.10534487664699554,-0.06703764945268631
1714858353839187000,2.83418701171875,10.204087257385254,0.090979665517807,-0.07182604819536209
1714858353849136400,2.844136474609375,10.194510459899902,0.08619125932455063,-0.08619125932455063
1714858353859086000,2.854086181640625,10.20887565612793,0.07182604819536209,-0.11013327538967133
1714858353869035500,2.864035400390625,10.194510459899902,0.05746084079146385,-0.11013327538967133
1714858353878985000,2.87398486328125,10.204087257385254,0.05746084079146385,-0.11013327538967133
1714858353888934400,2.883934326171875,10.20887565612793,0.06224924325942993,-0.10534487664699554
1714858353898883800,2.8938837890625,10.199298858642578,0.07661445438861847,-0.08140286058187485
1714858353908833300,2.903833251953125,10.199298858642578,0.090979665517807,-0.06703764945268631
1714858353918783000,2.913782958984375,10.204087257385254,0.10055647045373917,-0.05267243832349777
1714858353928732400,2.923732421875,10.194510459899902,0.10534487664699554,-0.038307227194309235
1714858353938681900,2.933681884765625,10.204087257385254,0.10534487664699554,-0.043095629662275314
1714858353948631300,2.94363134765625,10.20887565612793,0.10055647045373917,-0.05267243832349777
1714858353958580700,2.953580810546875,10.194510459899902,0.090979665517807,-0.07661445438861847
1714858353968530200,2.9635302734375,10.199298858642578,0.07661445438861847,-0.09576806426048279
1714858353978479600,2.973479736328125,10.199298858642578,0.06703764945268631,-0.10055647045373917
1714858353988429300,2.98342919921875,10.194510459899902,0.06224924325942993,-0.09576806426048279
1714858353998378800,2.993378662109375,10.20887565612793,0.05746084079146385,-0.10534487664699554
1714858354008328200,3.003328125,10.204087257385254,0.05746084079146385,-0.10055647045373917
1714858354018277600,3.013277587890625,10.204087257385254,0.07661445438861847,-0.08140286058187485
1714858354028227000,3.02322705078125,10.189722061157227,0.08619125932455063,-0.07182604819536209
1714858354038176500,3.033176513671875,10.199298858642578,0.090979665517807,-0.07661445438861847
1714858354048126200,3.043126220703125,10.199298858642578,0.090979665517807,-0.07661445438861847
1714858354058075600,3.05307568359375,10.189722061157227,0.08140286058187485,-0.08140286058187485
1714858354068025000,3.063025146484375,10.199298858642578,0.07182604819536209,-0.08619125932455063
1714858354077974500,3.072974609375,10.204087257385254,0.06703764945268631,-0.10055647045373917
1714858354087924000,3.082924072265625,10.20887565612793,0.047884032130241394,-0.11013327538967133
1714858354097873400,3.092873291015625,10.199298858642578,0.047884032130241394,-0.090979665517807
1714858354107822800,3.10282275390625,10.194510459899902,0.05746084079146385,-0.08140286058187485
1714858354117772500,3.1127724609375,10.199298858642578,0.07182604819536209,-0.06703764945268631
1714858354127722000,3.122721923828125,10.199298858642578,0.08619125932455063,-0.05746084079146385
1714858354137671400,3.13267138671875,10.194510459899902,0.09576806426048279,-0.06224924325942993
1714858354147620900,3.142620849609375,10.194510459899902,0.10534487664699554,-0.06703764945268631
1714858354157570300,3.1525703125,10.199298858642578,0.1149216815829277,-0.07661445438861847
1714858354167519700,3.162519775390625,10.194510459899902,0.11013327538967133,-0.08140286058187485
1714858354177469400,3.172469482421875,10.199298858642578,0.1149216815829277,-0.08140286058187485
1714858354187419000,3.1824189453125,10.199298858642578,0.10055647045373917,-0.09576806426048279
1714858354197368300,3.192368408203125,10.20887565612793,0.10055647045373917,-0.090979665517807
1714858354207317800,3.20231787109375,10.204087257385254,0.090979665517807,-0.090979665517807
1714858354217267200,3.21226708984375,10.199298858642578,0.07182604819536209,-0.10055647045373917
1714858354227216600,3.222216552734375,10.194510459899902,0.06703764945268631,-0.09576806426048279
1714858354237166000,3.232166015625,10.199298858642578,0.05267243832349777,-0.090979665517807
1714858354247115800,3.24211572265625,10.199298858642578,0.05746084079146385,-0.07661445438861847
1714858354257065200,3.252065185546875,10.199298858642578,0.06224924325942993,-0.06703764945268631
1714858354267014700,3.2620146484375,10.199298858642578,0.047884032130241394,-0.06703764945268631
1714858354276964000,3.271964111328125,10.18493366241455,0.05746084079146385,-0.06703764945268631
1714858354286913500,3.28191357421875,10.194510459899902,0.05746084079146385,-0.07182604819536209
1714858354296863000,3.291863037109375,10.204087257385254,0.06703764945268631,-0.07661445438861847
1714858354306812400,3.3018125,10.20887565612793,0.08140286058187485,-0.07182604819536209
1714858354316762000,3.31176220703125,10.204087257385254,0.10055647045373917,-0.06703764945268631
1714858354326711600,3.321711669921875,10.194510459899902,0.11013327538967133,-0.07182604819536209
1714858354336661000,3.331660888671875,10.194510459899902,0.11971008777618408,-0.07182604819536209
1714858354346610400,3.3416103515625,10.194510459899902,0.1149216815829277,-0.07182604819536209
1714858354356560000,3.351559814453125,10.199298858642578,0.11971008777618408,-0.090979665517807
1714858354366509300,3.36150927734375,10.199298858642578,0.09576806426048279,-0.09576806426048279
1714858354376459000,3.371458984375,10.194510459899902,0.08140286058187485,-0.10534487664699554
1714858354386408400,3.381408447265625,10.199298858642578,0.08140286058187485,-0.10534487664699554
1714858354396358000,3.39135791015625,10.194510459899902,0.06224924325942993,-0.10055647045373917
1714858354406307300,3.401307373046875,10.199298858642578,0.05746084079146385,-0.090979665517807
1714858354416256800,3.4112568359375,10.204087257385254,0.06224924325942993,-0.08619125932455063
1714858354426206200,3.421206298828125,10.20887565612793,0.05746084079146385,-0.07182604819536209
1714858354436155600,3.43115576171875,10.204087257385254,0.06224924325942993,-0.06703764945268631
1714858354446105300,3.441105224609375,10.20887565612793,0.07182604819536209,-0.05746084079146385
1714858354456054800,3.4510546875,10.165780067443848,0.07661445438861847,-0.06224924325942993
1714858354466004200,3.461004150390625,10.232817649841309,0.11013327538967133,0
1714858354475953700,3.47095361328125,10.223240852355957,0.09576806426048279,-0.028730420395731926
1714858354485903000,3.480903076171875,10.199298858642578,0.08140286058187485,-0.06224924325942993
1714858354495852500,3.4908525390625,10.20887565612793,0.07182604819536209,-0.08140286058187485
1714858354505802200,3.50080224609375,10.20887565612793,0.07661445438861847,-0.090979665517807
1714858354515751700,3.510751708984375,10.127472877502441,0.06703764945268631,-0.16759411990642548
1714858354525701000,3.520701171875,10.20887565612793,0.06703764945268631,-0.1388636976480484
1714858354535650600,3.530650634765625,10.295066833496094,0.1149216815829277,-0.08140286058187485
1714858354545600000,3.54060009765625,10.170568466186523,0.3495534360408783,0.11013327538967133
1714858354555549400,3.550549560546875,10.146626472473145,0.7134721279144287,-0.05267243832349777
1714858354565499100,3.5604990234375,10.1753568649292,0.3878606855869293,-0.014365210197865963
1714858354575448600,3.570448486328125,10.189722061157227,-0.4213795065879822,-0.26815059781074524
1714858354585398000,3.58039794921875,10.046070098876953,-0.9576807022094727,-0.29209262132644653
1714858354595347700,3.59034765625,10.041281700134277,-0.8092401623725891,-0.689530074596405
1714858354605297200,3.600297119140625,9.11233139038086,-0.3447650372982025,-0.009576806798577309
1714858354615246600,3.61024658203125,12.382811546325684,0.7805097699165344,0.7996633648872375
1714858354625196300,3.6201962890625,11.645397186279297,0.1867477297782898,0.047884032130241394
1714858354635145700,3.630145751953125,12.737153053283691,-0.2346317619085312,-0.7326257228851318
1714858354645095400,3.640095458984375,12.69405746459961,-0.3878606855869293,-0.4118026793003082
1714858354655044900,3.650044921875,11.501745223999023,-0.7038952708244324,0.4644751250743866
1714858354664994300,3.659994384765625,9.90241813659668,-0.8140285611152649,2.2888567447662354
1714858354674944000,3.669944091796875,8.887276649475098,-1.1109095811843872,3.490746021270752
1714858354684893400,3.6798935546875,6.8809356689453125,-1.5658079385757446,5.396530628204346
1714858354694843000,3.6898427734375,6.7708024978637695,-3.428496837615967,5.497087001800537
1714858354704792600,3.69979248046875,7.216124057769775,-5.013458251953125,5.080495834350586
1714858354714742000,3.709741943359375,8.480262756347656,-4.462791919708252,4.352658748626709
1714858354724691500,3.71969140625,11.118672370910645,-3.9025487899780273,1.9249382019042969
1714858354734641200,3.72964111328125,14.317326545715332,-4.520252704620361,0.44532153010368347
1714858354744590600,3.739590576171875,17.51119041442871,-4.548983097076416,1.3742717504501343
1714858354754540000,3.7495400390625,19.670761108398438,-4.050989151000977,1.9297266006469727
1714858354764489700,3.75948974609375,20.633230209350586,-4.611232280731201,0.8140285611152649
1714858354774439200,3.769439208984375,20.70505714416504,-4.458003520965576,-0.2298433631658554
1714858354784388900,3.779388916015625,19.527109146118164,-4.20421838760376,-0.44532153010368347
1714858354794338300,3.78933837890625,18.186355590820312,-4.817133903503418,-0.35434186458587646
1714858354804287700,3.799287841796875,16.76898956298828,-5.659893035888672,0.26336219906806946
1714858354814237400,3.809237548828125,15.026009559631348,-5.971138954162598,0.790086567401886
1714858354824187000,3.819186767578125,13.958195686340332,-5.770026206970215,0.47405192255973816
1714858354834136300,3.82913623046875,12.947842597961426,-5.037400245666504,0
1714858354844086000,3.8390859375,13.187262535095215,-4.390965938568115,-1.0055646896362305
1714858354854035500,3.849035400390625,13.843274116516113,-3.773261785507202,-1.8195933103561401
1714858354863985000,3.85898486328125,13.939042091369629,-2.5474305152893066,-2.3080103397369385
1714858354873934600,3.8689345703125,13.618219375610352,-1.50355863571167,-2.9927520751953125
1714858354883884000,3.878884033203125,13.603854179382324,-2.2601263523101807,-4.189853191375732
1714858354893833500,3.88883349609375,13.46020221710205,-2.782062292098999,-4.970362663269043
1714858354903783200,3.898783203125,11.8225679397583,-1.3551181554794312,-4.343081951141357
1714858354913732600,3.908732666015625,9.955090522766113,-0.1867477297782898,-3.912125587463379
1714858354923682300,3.918682373046875,8.580819129943848,-0.1867477297782898,-3.3470940589904785
1714858354933631700,3.9286318359375,7.848193168640137,-0.13407529890537262,-3.5673606395721436
1714858354943581200,3.938581298828125,7.144298076629639,0.10055647045373917,-5.434837818145752
1714858354953531000,3.94853076171875,5.947196960449219,-0.5171475410461426,-6.885724067687988
1714858354963480300,3.958480224609375,4.2090067863464355,-2.2218191623687744,-5.65031623840332
1714858354973429800,3.9684296875,2.2601263523101807,-1.8387469053268433,-1.9345149993896484
1714858354983379500,3.97837939453125,0.2106897532939911,0.3974374830722809,0.6655880808830261
1714858354993329000,3.988328857421875,-0.9864110946655273,1.8579005002975464,1.7717092037200928
1714858355003278300,3.9982783203125,-0.6129156351089478,2.341529369354248,2.4612393379211426
1714858355013227800,4.008227783203125,1.2258312702178955,2.6623523235321045,2.3271639347076416
1714858355023177200,4.01817724609375,3.442862033843994,2.5761611461639404,1.6184803247451782
1714858355033127000,4.028126953125,5.999869346618652,2.849100112915039,0.5841852426528931
1714858355043076400,4.038076416015625,9.433155059814453,4.01268196105957,-0.933738648891449
1714858355053025800,4.04802587890625,12.995726585388184,5.0900726318359375,-3.1268274784088135
1714858355062975200,4.057975341796875,16.117765426635742,4.467580318450928,-3.5673606395721436
1714858355072924700,4.067924560546875,17.4345760345459,3.9887399673461914,-1.6328455209732056
1714858355082874000,4.0778740234375,17.171215057373047,4.716577529907227,1.6041151285171509
1714858355092823800,4.08782373046875,15.691597938537598,6.057330131530762,5.147533416748047
1714858355102773200,4.097773193359375,13.062764167785645,7.843404769897461,8.169015884399414
1714858355112722700,4.10772265625,10.405200958251953,8.80587387084961,10.232817649841309
1714858355122672000,4.117672119140625,8.825027465820312,7.728483200073242,10.94150161743164
1714858355132624400,4.127624267578125,9.05487060546875,4.975151062011719,7.642292022705078
1714858355142573800,4.13757373046875,4.5825018882751465,2.7102363109588623,-11.080365180969238
1714858355152523300,4.147523193359375,1.2018892765045166,3.160346269607544,-10.309432983398438
1714858355162472700,4.15747265625,3.227383852005005,5.056553840637207,-10.18493366241455
1714858355172422100,4.167422119140625,7.575253963470459,5.92325496673584,-18.028339385986328
1714858355182371800,4.177371826171875,10.697293281555176,6.382941722869873,-17.266983032226562
1714858355192321300,4.1873212890625,13.187262535095215,6.9240312576293945,-13.220781326293945
1714858355202270700,4.197270751953125,41.52024459838867,9.797073364257812,-0.038307227194309235
1714858355212220200,4.20722021484375,17.808073043823242,9.23682975769043,6.224924564361572
1714858355222169600,4.217169677734375,12.780248641967773,9.821015357971191,12.732364654541016
1714858355232119000,4.227119140625,9.23682975769043,9.452308654785156,9.452308654785156
1714858355242068500,4.237068359375,6.555324077606201,8.485051155090332,4.5154643058776855
1714858355252018200,4.24701806640625,4.965574264526367,7.029376029968262,2.298433542251587
1714858355261967600,4.256967529296875,1.867477297782898,5.980715751647949,1.5897499322891235
1714858355271917000,4.2669169921875,-0.2346317619085312,5.363011837005615,1.2976573705673218
1714858355281866500,4.276866455078125,2.408566951751709,5.276820659637451,1.4891934394836426
1714858355291816000,4.28681591796875,9.476250648498535,5.492298603057861,3.7205893993377686
1714858355301765400,4.296765380859375,8.030152320861816,5.4875102043151855,3.73016619682312
1714858355311715000,4.306715087890625,5.056553840637207,4.381389141082764,5.966350555419922
1714858355321664500,4.31666455078125,4.63517427444458,2.3798365592956543,8.911218643188477
1714858355331614000,4.326614013671875,4.170699596405029,1.0103530883789062,9.423578262329102
1714858355341563400,4.3365634765625,2.8586769104003906,0.6943184733390808,8.676587104797363
1714858355351512800,4.346512939453125,2.121262788772583,0.2537853717803955,7.623138427734375
1714858355361462300,4.356462158203125,1.1300631761550903,0.004788403399288654,6.426037311553955
1714858355371411700,4.36641162109375,0.7613561153411865,0.29209262132644653,6.521805286407471
1714858355381361400,4.376361328125,0.272938996553421,-0.6655880808830261,6.828263282775879
1714858355391310800,4.386310791015625,-0.05746084079146385,-1.1492167711257935,6.095637321472168
1714858355401260300,4.39626025390625,1.0055646896362305,-1.1444283723831177,3.907337188720703
1714858355411209700,4.406209716796875,2.47560453414917,-1.0055646896362305,0.6512228846549988
1714858355421159200,4.4161591796875,5.1331682205200195,-1.4748282432556152,-3.6391866207122803
1714858355431108600,4.426108642578125,8.370129585266113,-2.0829553604125977,-7.766790390014648
1714858355441058300,4.436058349609375,10.778696060180664,-1.7477672100067139,-8.398859977722168
1714858355451007700,4.4460078125,12.052411079406738,-1.2449848651885986,-6.833051681518555
1714858355460957200,4.455957275390625,17.779342651367188,-0.6943184733390808,-3.8163576126098633
1714858355470906600,4.46590673828125,16.807296752929688,-0.6703764796257019,-0.7613561153411865
1714858355480856000,4.47585595703125,17.30529022216797,-0.7757213711738586,3.2800562381744385
1714858355490805500,4.485805419921875,19.086576461791992,-0.8523358106613159,5.324704647064209
1714858355500755000,4.4957548828125,17.243040084838867,-1.0582371950149536,6.660669326782227
1714858355510704600,4.50570458984375,14.618995666503906,-1.9057846069335938,7.015010833740234
1714858355520654000,4.515654052734375,10.955866813659668,-3.07415509223938,6.473921298980713
1714858355530603500,4.525603515625,6.4834980964660645,-3.1651346683502197,7.240066051483154
1714858355540553000,4.535552978515625,2.8874073028564453,-2.212242364883423,6.818686485290527
1714858355550502400,4.54550244140625,1.1827356815338135,-1.2066776752471924,7.316680431365967
1714858355560451800,4.555451904296875,0.26815059781074524,0.2106897532939911,7.168240070343018
1714858355570401500,4.565401611328125,1.824381709098816,2.183511972427368,5.171475887298584
1714858355580351000,4.57535107421875,3.0885202884674072,3.3854012489318848,2.8443117141723633
1714858355590300400,4.585300537109375,3.4189200401306152,3.3039982318878174,1.0965443849563599
1714858355600249900,4.595249755859375,3.9600095748901367,2.2888567447662354,0.26815059781074524
1714858355610199300,4.60519921875,3.8163576126098633,1.259350061416626,-2.9735984802246094
1714858355620148700,4.615148681640625,1.9536685943603516,1.5849615335464478,-4.252102375030518
1714858355630098200,4.62509814453125,-0.29209262132644653,2.7772738933563232,-1.699883222579956
1714858355640047900,4.6350478515625,1.1252747774124146,3.3949780464172363,-6.2201361656188965
1714858355649997300,4.644997314453125,4.113238334655762,4.376600742340088,-9.99339771270752
1714858355659946800,4.65494677734375,4.654327869415283,5.315127849578857,-16.007633209228516
1714858355669896200,4.664896240234375,0.7182605266571045,8.087613105773926,-22.72097396850586
1714858355679845600,4.674845703125,-3.5003228187561035,11.386823654174805,-24.138341903686523
1714858355689795300,4.68479541015625,-3.117250680923462,15.863980293273926,-22.16551971435547
1714858355699744800,4.694744873046875,-2.1499931812286377,17.31965446472168,-21.57654571533203
1714858355709694200,4.704694091796875,-5.2911858558654785,17.468095779418945,-25.38811492919922
1714858355719644000,4.714643798828125,-7.618350028991699,18.564640045166016,-18.871097564697266
1714858355729593300,4.72459326171875,-7.556100368499756,19.311630249023438,-6.971915245056152
1714858355739543000,4.73454296875,-6.277596950531006,20.532672882080078,-1.3982137441635132
1714858355749492500,4.744492431640625,-3.643975019454956,21.667526245117188,-0.2298433631658554
1714858355759442000,4.75444189453125,-2.8874073028564453,19.44570541381836,-1.4508862495422363
1714858355769391600,4.7643916015625,-4.8937482833862305,16.40985870361328,-2.3080103397369385
1714858355779341000,4.774341064453125,-7.838616371154785,14.121001243591309,-3.44765043258667
1714858355789290500,4.78429052734375,-11.72201156616211,12.090718269348145,-5.793968200683594
1714858355799240200,4.794240234375,-14.968548774719238,10.500968933105469,-6.387730121612549
1714858355809189600,4.804189697265625,-18.066646575927734,8.422801971435547,-5.669469833374023
1714858355819139000,4.81413916015625,-19.005172729492188,5.525817394256592,-5.463568210601807
1714858355829088800,4.8240888671875,-18.63646697998047,3.5003228187561035,-5.434837818145752
1714858355839038200,4.8340380859375,-17.295713424682617,1.5610195398330688,-3.227383852005005
1714858355848987600,4.843987548828125,-16.371551513671875,1.4987702369689941,0.6703764796257019
1714858355858937300,4.853937255859375,-13.934253692626953,-0.9720458984375,5.578489780426025
1714858355868886800,4.86388671875,-11.650185585021973,-3.1651346683502197,11.133037567138672
1714858355878836500,4.87383642578125,-10.15141487121582,-4.003105163574219,15.097835540771484
1714858355888786000,4.883785888671875,-7.216124057769775,-3.6104562282562256,19.086576461791992
1714858355898735400,4.8937353515625,-5.286397457122803,-2.432508945465088,23.003490447998047
1714858355908685000,4.90368505859375,-5.099649429321289,-0.5027823448181152,24.157495498657227
1714858355918634500,4.913634521484375,-3.3662476539611816,-2.006340980529785,22.251710891723633
1714858355928584000,4.923583984375,-2.695871114730835,-5.463568210601807,16.089035034179688
1714858355938533600,4.93353369140625,-3.2848446369171143,-6.493074893951416,9.083600997924805
1714858355948483000,4.943483154296875,-3.60566782951355,-7.718906402587891,2.4420857429504395
1714858355958432500,4.9534326171875,-3.7253777980804443,-9.615114212036133,-3.1651346683502197
1714858355968382200,4.96338232421875,-3.3279404640197754,-11.434707641601562,-6.0621185302734375
1714858355978331600,4.97333154296875,-1.647210717201233,-13.283031463623047,-6.296750545501709
1714858355988281000,4.983281005859375,-0.043095629662275314,-12.780248641967773,-6.038176536560059
1714858355998230800,4.993230712890625,1.9584569931030273,-10.96544361114502,-7.489062786102295
1714858356008180200,5.00318017578125,5.477933406829834,-9.481039047241211,-8.355764389038086
1714858356018129700,5.013129638671875,10.065223693847656,-7.503427982330322,-7.359776020050049
1714858356028079000,5.0230791015625,15.030797958374023,-6.004657745361328,-6.143521785736084
1714858356038028500,5.033028564453125,19.761741638183594,-4.922478675842285,-6.205770969390869
1714858356047978200,5.042978271484375,22.433670043945312,-4.802768707275391,-7.833827972412109
1714858356057927700,5.052927734375,23.16150665283203,-5.7987565994262695,-10.228029251098633
1714858356067877000,5.062877197265625,23.39134979248047,-6.315904140472412,-11.21444034576416
1714858356077826600,5.07282666015625,24.880544662475586,-6.248866558074951,-9.581595420837402
1714858356087776000,5.08277587890625,28.754362106323242,-7.402871608734131,-7.264008045196533
1714858356097725400,5.092725341796875,32.66648864746094,-8.461109161376953,-4.108449935913086
1714858356107675100,5.102675048828125,33.619380950927734,-8.99740982055664,-1.50355863571167
1714858356117624600,5.11262451171875,30.459033966064453,-9.524134635925293,0.043095629662275314
1714858356127574000,5.122573974609375,25.62274742126465,-8.829815864562988,1.8626888990402222
1714858356137523500,5.1325234375,21.380220413208008,-6.971915245056152,2.738966703414917
1714858356147473000,5.142472900390625,18.746599197387695,-5.377377033233643,1.920149803161621
1714858356157422300,5.15242236328125,18.4257755279541,-5.4013190269470215,0.6560112833976746
1714858356167371800,5.162371826171875,18.851943969726562,-7.881711959838867,0.5985504388809204
1714858356177321500,5.172321533203125,18.622100830078125,-10.44350814819336,1.5466543436050415
1714858356187271000,5.18227099609375,16.40506935119629,-11.367670059204102,3.643975019454956
1714858356197220400,5.192220458984375,11.022904396057129,-8.667010307312012,4.793191909790039
1714858356207169800,5.202169677734375,5.932831764221191,-4.290409564971924,4.175487995147705
1714858356217119200,5.212119140625,2.75812029838562,-0.5315127968788147,3.821146011352539
1714858356227068700,5.222068603515625,0.33518823981285095,2.279279947280884,2.169146776199341
1714858356237018000,5.23201806640625,-1.4891934394836426,3.912125587463379,-0.7709329724311829
1714858356246967800,5.2419677734375,-3.2082302570343018,5.037400245666504,-4.213795185089111
1714858356256917200,5.251917236328125,-4.309563159942627,7.474697589874268,-10.089165687561035
1714858356266866700,5.26186669921875,-4.3622355461120605,10.395624160766602,-15.059528350830078
1714858356276816100,5.271816162109375,-4.707000732421875,11.104307174682617,-14.800954818725586
1714858356286765600,5.281765625,-5.343858242034912,10.280701637268066,-12.085929870605469
1714858356296715000,5.291715087890625,-5.8657941818237305,9.93593692779541,-10.615890502929688
1714858356306664700,5.301664794921875,-7.886500358581543,9.93593692779541,-11.956643104553223
1714858356316614100,5.3116142578125,-9.677363395690918,9.548076629638672,-15.456966400146484
1714858356326563600,5.3215634765625,-9.548076629638672,8.47547435760498,-18.516756057739258
1714858356336513000,5.331512939453125,-9.442731857299805,7.671022415161133,-20.992361068725586
1714858356346462500,5.34146240234375,-9.873687744140625,6.670246124267578,-21.179107666015625
1714858356356412000,5.351411865234375,-10.290278434753418,5.123591423034668,-15.595829963684082
1714858356366361300,5.361361328125,-11.669339179992676,3.375824451446533,-7.101202011108398
1714858356376311000,5.37131103515625,-13.105859756469727,2.542642116546631,-0.9002198576927185
1714858356386260500,5.381260498046875,-15.298949241638184,2.695871114730835,4.989516258239746
1714858356396210000,5.3912099609375,-17.817649841308594,4.084507942199707,11.276689529418945
1714858356406159400,5.401159423828125,-19.38345718383789,5.9519853591918945,14.647726058959961
1714858356416108800,5.41110888671875,-17.697938919067383,6.756437301635742,13.66610336303711
1714858356426058200,5.421058349609375,-17.276559829711914,6.531382083892822,12.51209831237793
1714858356436008000,5.431008056640625,-21.432893753051758,6.919242858886719,12.808979034423828
1714858356445957400,5.440957275390625,-23.472753524780273,7.101202011108398,13.599065780639648
1714858356455906800,5.45090673828125,-21.978771209716797,7.287950038909912,14.556746482849121
1714858356465856300,5.460856201171875,-16.199169158935547,7.666234016418457,14.092270851135254
1714858356475805700,5.4708056640625,-9.677363395690918,6.598419666290283,12.69405746459961
1714858356485755100,5.480755126953125,-5.367800235748291,4.568136692047119,10.213664054870605
1714858356495704600,5.49070458984375,-2.432508945465088,2.652775526046753,6.1052141189575195
1714858356505654300,5.500654296875,-0.3734954595565796,0.8236053586006165,0.8762778043746948
1714858356515603700,5.510603759765625,0.22505496442317963,-1.4748282432556152,-3.9647979736328125
1714858356525553200,5.52055322265625,-0.9768342971801758,-3.7636849880218506,-6.675034523010254
1714858356535502600,5.530502685546875,-2.9544448852539062,-5.147533416748047,-5.439626216888428
1714858356545452000,5.5404521484375,-4.812345504760742,-5.913678169250488,-1.7717092037200928
1714858356555401500,5.5504013671875,-6.746860504150391,-5.928043365478516,2.7964274883270264
1714858356565351200,5.56035107421875,-7.819462776184082,-4.711789131164551,6.9910688400268555
1714858356575300600,5.570300537109375,-8.030152320861816,-3.6822822093963623,9.552865028381348
1714858356585250000,5.58025,-6.718130111694336,-3.7876269817352295,10.137049674987793
1714858356595199500,5.590199462890625,-4.32871675491333,-4.960785865783691,10.1753568649292
1714858356605149000,5.60014892578125,-2.580949544906616,-5.5545477867126465,10.065223693847656
1714858356615098400,5.610098388671875,-0.569819986820221,-5.406107425689697,8.978256225585938
1714858356625047800,5.6200478515625,2.4899697303771973,-3.667917013168335,7.264008045196533
1714858356634997500,5.62999755859375,5.760449409484863,-1.50355863571167,7.134721279144287
1714858356644947000,5.639947021484375,9.174580574035645,0.10534487664699554,8.418013572692871
1714858356654896400,5.649896484375,12.928689002990723,0.019153613597154617,9.911994934082031
1714858356664845800,5.659845703125,16.127342224121094,-1.8339585065841675,10.754754066467285
1714858356674795300,5.669795166015625,17.80328369140625,-3.8067808151245117,10.247182846069336
1714858356684744700,5.67974462890625,18.17677879333496,-4.180276393890381,8.78193187713623
1714858356694694400,5.6896943359375,15.480908393859863,-2.4420857429504395,7.072471618652344
1714858356704643800,5.699643798828125,11.980585098266602,-0.545877993106842,5.57370138168335
1714858356714593300,5.70959326171875,11.013327598571777,0.9911994934082031,6.172252178192139
1714858356724542700,5.719542724609375,12.492944717407227,1.8531121015548706,8.959102630615234
1714858356734492200,5.7294921875,14.690821647644043,0.5363011956214905,10.90798282623291
1714858356744441600,5.739441650390625,13.967772483825684,-1.235408067703247,12.38759994506836
1714858356754391000,5.74939111328125,12.052411079406738,-2.7964274883270264,14.350845336914062
1714858356764340700,5.7593408203125,9.514557838439941,-3.8307228088378906,15.308526039123535
1714858356774290200,5.769290283203125,5.477933406829834,-4.438849925994873,14.824896812438965
1714858356784239600,5.779239501953125,1.3407529592514038,-4.726154327392578,14.465766906738281
1714858356794189000,5.78918896484375,-1.53707754611969,-5.085284233093262,13.991714477539062
1714858356804138500,5.799138427734375,-3.423708438873291,-5.679046630859375,12.287043571472168
1714858356814088000,5.809087890625,-4.577713489532471,-6.449979305267334,8.743624687194824
1714858356824037600,5.81903759765625,-5.228936672210693,-7.3693528175354,3.35667085647583
1714858356833987000,5.828987060546875,-5.808333396911621,-8.111555099487305,-3.361459255218506
1714858356843936500,5.8389365234375,-5.190629482269287,-6.861782073974609,-10.697293281555176
1714858356853886000,5.848885986328125,-5.118803024291992,-3.758896589279175,-15.049951553344727
1714858356863835400,5.85883544921875,-6.349422931671143,-1.1204863786697388,-15.806519508361816
1714858356873784800,5.868784912109375,-6.775590896606445,0.47405192255973816,-15.98369026184082
1714858356883734300,5.878734375,-6.387730121612549,0.7374141216278076,-18.377891540527344
1714858356893684000,5.88868408203125,-6.402095317840576,0.646434485912323,-21.370643615722656
1714858356903633400,5.89863330078125,-7.8529815673828125,0.37828385829925537,-23.75527000427246
1714858356913582800,5.908582763671875,-9.911994934082031,-0.1628057211637497,-26.326641082763672
1714858356923532300,5.9185322265625,-10.400412559509277,0.727837324142456,-28.5484619140625
1714858356933481700,5.928481689453125,-9.715670585632324,1.3646949529647827,-28.91238021850586
1714858356943431200,5.93843115234375,-8.552088737487793,1.6759412288665771,-27.8732967376709
1714858356953380900,5.948380859375,-7.934384346008301,2.2170307636260986,-26.092010498046875
1714858356963330300,5.958330322265625,-8.355764389038086,1.7908629179000854,-24.684219360351562
1714858356973279700,5.96827978515625,-9.05487060546875,2.3558945655822754,-21.68667984008789
1714858356983229200,5.978229248046875,-8.825027465820312,3.5721490383148193,-15.476119995117188
1714858356993178600,5.9881787109375,-6.430825710296631,4.395754337310791,-6.761225700378418
1714858357003128000,5.998128173828125,-2.676717519760132,5.463568210601807,2.9448680877685547
1714858357013077500,6.008077392578125,2.0446481704711914,7.436390399932861,11.195286750793457
1714858357023027200,6.018027099609375,7.819462776184082,8.643068313598633,15.911864280700684
1714858357032976600,6.0279765625,14.504074096679688,8.303091049194336,17.07544708251953
1714858357042926000,6.037926025390625,18.617311477661133,8.667010307312012,16.65406608581543
1714858357052875500,6.04787548828125,16.34282112121582,10.462661743164062,17.496826171875
1714858357062825000,6.057824951171875,9.083600997924805,11.985373497009277,20.523096084594727
1714858357072774400,6.0677744140625,3.098097085952759,12.588712692260742,22.567745208740234
1714858357082724000,6.07772412109375,0.17717093229293823,13.10107135772705,23.08010482788086
1714858357092673500,6.087673583984375,-0.6655880808830261,12.684480667114258,21.552602767944336
1714858357102623000,6.097623046875,-0.9959878921508789,10.050858497619629,18.804059982299805
1714858357112572400,6.107572509765625,-0.4118026793003082,8.255207061767578,15.16008472442627
1714858357122521900,6.11752197265625,1.158793568611145,7.671022415161133,12.042834281921387
1714858357132471300,6.12747119140625,2.762908697128296,7.570465564727783,10.453084945678711
1714858357142420700,6.137420654296875,3.7253777980804443,6.746860504150391,10.055646896362305
1714858357152370400,6.147370361328125,4.67827033996582,5.233725070953369,9.184157371520996
1714858357162320000,6.15731982421875,5.252878665924072,4.817133903503418,7.058106422424316
1714858357172269300,6.167269287109375,6.675034523010254,5.114014625549316,4.774038314819336
1714858357182218800,6.17721875,8.901641845703125,4.663905143737793,3.1651346683502197
1714858357192168200,6.187168212890625,11.314997673034668,3.509899616241455,1.9488801956176758
1714858357202117600,6.19711767578125,13.354857444763184,1.867477297782898,1.0055646896362305
1714858357212067000,6.207067138671875,13.388376235961914,0.7469909191131592,0.9528923034667969
1714858357222016800,6.217016845703125,11.070788383483887,0.22505496442317963,1.1204863786697388
1714858357231966200,6.22696630859375,7.316680431365967,0.7469909191131592,0.7038952708244324
1714858357241915600,6.23691552734375,3.801992416381836,1.455674648284912,0.009576806798577309
1714858357251865000,6.246864990234375,1.556231141090393,1.7956513166427612,-0.1388636976480484
1714858357261814500,6.256814453125,1.0247182846069336,1.278503656387329,-0.2298433631658554
1714858357271764000,6.266763916015625,1.8052281141281128,0.363918662071228,-0.5602431893348694
1714858357281713700,6.276713623046875,4.23773717880249,-0.33518823981285095,-0.9241618514060974
1714858357291663000,6.2866630859375,6.967126846313477,-1.2497732639312744,-1.115697979927063
1714858357301612500,6.296612548828125,9.155426979064941,-2.4468741416931152,-1.8195933103561401
1714858357311562000,6.30656201171875,10.074800491333008,-2.6862943172454834,-2.8874073028564453
1714858357321511400,6.316511474609375,11.027692794799805,-2.250549554824829,-4.486733913421631
1714858357331460900,6.3264609375,13.172897338867188,-1.9393033981323242,-5.7556610107421875
1714858357341410300,6.336410400390625,15.255853652954102,-1.7477672100067139,-5.506663799285889
1714858357351360000,6.346360107421875,16.792930603027344,-2.7437551021575928,-4.424484729766846
1714858357361309400,6.356309326171875,16.970102310180664,-3.3710360527038574,-3.050212860107422
1714858357371259000,6.3662587890625,15.878345489501953,-3.2130186557769775,-2.499546527862549
1714858357381208300,6.376208251953125,13.26866626739502,-2.5330653190612793,-2.183511972427368
1714858357391157800,6.38615771484375,10.007762908935547,-2.38462495803833,-2.126051187515259
1714858357401107200,6.396107177734375,7.393294811248779,-2.451662540435791,-2.911349296569824
1714858357411057000,6.406056884765625,6.507440090179443,-1.7142484188079834,-4.874594688415527
1714858357421006300,6.41600634765625,8.336610794067383,-0.8092401623725891,-5.961562156677246
1714858357430955800,6.425955810546875,11.238382339477539,-1.0821791887283325,-4.520252704620361
1714858357440905200,6.4359052734375,14.566323280334473,-1.5466543436050415,-2.3032219409942627
1714858357450854700,6.445854736328125,16.251840591430664,-1.6089035272598267,0.26336219906806946
1714858357460804000,6.45580419921875,16.146495819091797,-1.8100165128707886,2.1356279850006104
1714858357470753500,6.46575341796875,15.207969665527344,-2.0015525817871094,2.499546527862549
1714858357480703200,6.475703125,13.129801750183105,-1.216254472732544,1.8339585065841675
1714858357490652700,6.485652587890625,10.99896240234375,-0.8523358106613159,0.7565677165985107
1714858357500602000,6.49560205078125,9.193734169006348,-0.9816226959228516,0.35913026332855225
1714858357510551600,6.505551513671875,7.891288757324219,-0.7182605266571045,0.6751648783683777
1714858357520501000,6.5155009765625,7.469909191131592,-0.4884171485900879,1.0007762908935547
1714858357530450400,6.525450439453125,7.905653953552246,-0.17717093229293823,1.3934253454208374
1714858357540400000,6.535400146484375,8.604761123657227,-0.24899697303771973,1.8531121015548706
1714858357550349600,6.545349609375,9.452308654785156,-0.43095630407333374,2.140416383743286
1714858357560299000,6.555299072265625,9.964667320251465,-0.3687070608139038,2.2218191623687744
1714858357570248400,6.56524853515625,9.586383819580078,-0.13407529890537262,2.1308395862579346
1714858357580198000,6.575197998046875,23.44402313232422,-0.15322890877723694,3.184288263320923
1714858357590147300,6.585147216796875,13.599065780639648,-1.6136919260025024,0.1628057211637497
1714858357600096800,6.5950966796875,7.532158374786377,-0.3256114423274994,-2.8155810832977295
1714858357610046500,6.60504638671875,9.198522567749023,0.20111294090747833,-2.542642116546631
1714858357619996000,6.614995849609375,12.751518249511719,-1.039083480834961,0.2106897532939911
1714858357629945300,6.6249453125,9.964667320251465,-0.6751648783683777,1.359906554222107
1714858357639894800,6.634894775390625,9.59596061706543,-0.23942017555236816,1.6663644313812256
1714858357649844200,6.64484423828125,10.27591323852539,-0.2106897532939911,0.4884171485900879
1714858357659793700,6.654793701171875,10.261548042297363,0.21547815203666687,-0.6272808313369751
1714858357669743400,6.664743408203125,9.706093788146973,0.8379706144332886,-1.0821791887283325
1714858357679692800,6.67469287109375,9.409213066101074,0.8619126081466675,-0.6607996821403503
1714858357689642200,6.684642333984375,10.06043529510498,0.6033388376235962,0.09576806426048279
1714858357699591700,6.694591796875,11.367670059204102,0.5410895943641663,0.8475474119186401
1714858357709541000,6.704541015625,10.228029251098633,0.8810662031173706,0.22026655077934265
1714858357719490600,6.714490478515625,10.65898609161377,1.0103530883789062,-0.4692635238170624
1714858357729440000,6.72443994140625,10.199298858642578,0.45489832758903503,-0.33518823981285095
1714858357739389700,6.7343896484375,10.266336441040039,-0.5171475410461426,0.3064578175544739
1714858357749339100,6.744339111328125,10.54406452178955,-1.1013327836990356,1.015141487121582
1714858357759288600,6.75428857421875,11.219228744506836,-1.6136919260025024,1.3503297567367554
1714858357769238300,6.76423828125,11.784260749816895,-2.298433542251587,0.7996633648872375
1714858357779187700,6.774187744140625,10.769119262695312,-1.5322890281677246,2.030282974243164
1714858357789137200,6.78413720703125,5.947196960449219,-0.05267243832349777,1.1540051698684692
1714858357799086800,6.7940869140625,7.292738437652588,0.37828385829925537,1.2449848651885986
1714858357809036300,6.804036376953125,10.170568466186523,-0.363918662071228,0.8954314589500427
1714858357818985700,6.81398583984375,12.248735427856445,-1.2449848651885986,-2.030282974243164
1714858357828935400,6.823935302734375,11.161767959594727,-0.6033388376235962,0.1388636976480484
1714858357838884900,6.833884765625,7.977479934692383,-0.33039984107017517,2.470816135406494
1714858357848834600,6.84383447265625,13.819332122802734,-0.13407529890537262,0.9241618514060974
1714858357858784000,6.853783935546875,8.767566680908203,-0.12449848651885986,0.9864110946655273
1714858357868733400,6.8637333984375,10.141838073730469,0.12449848651885986,-0.47884035110473633
1714858357878683100,6.87368310546875,11.128249168395996,0.5841852426528931,-0.4165911078453064
1714858357888632600,6.883632568359375,9.370905876159668,0.7086837291717529,-1.1013327836990356
1714858357898582000,6.89358203125,10.472238540649414,0.6224924325942993,-1.0773907899856567
1714858357908531700,6.90353173828125,10.06043529510498,0.5171475410461426,-1.766920804977417
1714858357918481200,6.913481201171875,10.189722061157227,0.181959331035614,-0.12928688526153564
1714858357928430600,6.9234306640625,10.204087257385254,0.1388636976480484,-0.05746084079146385
1714858357938380300,6.93338037109375,10.170568466186523,0.10534487664699554,-0.05746084079146385
1714858357948329700,6.943329833984375,10.194510459899902,0.06703764945268631,-0.07182604819536209
1714858357958279200,6.953279052734375,10.18493366241455,0.038307227194309235,-0.08619125932455063
1714858357968228900,6.963228759765625,10.189722061157227,0.028730420395731926,-0.090979665517807
1714858357978178300,6.97317822265625,10.199298858642578,0.023942016065120697,-0.08140286058187485
1714858357988128000,6.9831279296875,10.194510459899902,0.009576806798577309,-0.090979665517807
1714858357998077400,6.993077392578125,10.194510459899902,0.014365210197865963,-0.08619125932455063
1714858358008027000,7.00302685546875,10.189722061157227,0.019153613597154617,-0.07661445438861847
1714858358017976600,7.0129765625,10.189722061157227,0.019153613597154617,-0.090979665517807
1714858358027926000,7.022926025390625,10.194510459899902,0.038307227194309235,-0.08140286058187485
1714858358037875500,7.03287548828125,10.189722061157227,0.06224924325942993,-0.08619125932455063
1714858358047825200,7.0428251953125,10.204087257385254,0.07182604819536209,-0.07661445438861847
1714858358057774600,7.052774658203125,10.204087257385254,0.08619125932455063,-0.07182604819536209
1714858358067724000,7.06272412109375,10.199298858642578,0.10534487664699554,-0.05267243832349777
1714858358077673500,7.072673583984375,10.194510459899902,0.11971008777618408,-0.047884032130241394
1714858358087623000,7.082622802734375,10.189722061157227,0.12928688526153564,-0.047884032130241394
1714858358097572400,7.092572265625,10.199298858642578,0.11971008777618408,-0.05746084079146385
1714858358107522000,7.10252197265625,10.199298858642578,0.1149216815829277,-0.06703764945268631
1714858358117471500,7.112471435546875,10.189722061157227,0.11013327538967133,-0.08140286058187485
1714858358127421000,7.1224208984375,10.199298858642578,0.08140286058187485,-0.090979665517807
1714858358137370400,7.132370361328125,10.194510459899902,0.05746084079146385,-0.10055647045373917
1714858358147319800,7.14231982421875,10.204087257385254,0.05267243832349777,-0.09576806426048279
1714858358157269200,7.152269287109375,10.199298858642578,0.028730420395731926,-0.10055647045373917
1714858358167218700,7.16221875,10.204087257385254,0.023942016065120697,-0.08619125932455063
1714858358177168400,7.17216845703125,10.194510459899902,0.028730420395731926,-0.06703764945268631
1714858358187117800,7.182117919921875,10.199298858642578,0.043095629662275314,-0.047884032130241394
1714858358197067300,7.1920673828125,10.20887565612793,0.05746084079146385,-0.038307227194309235
1714858358207016700,7.2020166015625,10.199298858642578,0.06703764945268631,-0.019153613597154617
1714858358216966100,7.211966064453125,10.199298858642578,0.08140286058187485,-0.014365210197865963
1714858358226915600,7.22191552734375,10.204087257385254,0.09576806426048279,-0.028730420395731926
1714858358236865300,7.231865234375,10.189722061157227,0.090979665517807,-0.043095629662275314
1714858358246814700,7.241814697265625,10.194510459899902,0.09576806426048279,-0.05746084079146385
1714858358256764200,7.25176416015625,10.204087257385254,0.090979665517807,-0.090979665517807
1714858358266713600,7.261713623046875,10.199298858642578,0.08619125932455063,-0.10534487664699554
1714858358276663000,7.2716630859375,10.189722061157227,0.08619125932455063,-0.11013327538967133
1714858358286612500,7.281612548828125,10.194510459899902,0.07661445438861847,-0.10534487664699554
1714858358296562000,7.29156201171875,10.194510459899902,0.07661445438861847,-0.090979665517807
1714858358306511600,7.30151171875,10.204087257385254,0.06703764945268631,-0.08619125932455063
1714858358316461000,7.3114609375,10.189722061157227,0.07182604819536209,-0.08140286058187485
1714858358326410500,7.321410400390625,10.204087257385254,0.06224924325942993,-0.08140286058187485
1714858358336360000,7.33135986328125,10.189722061157227,0.05267243832349777,-0.08619125932455063
1714858358346309400,7.341309326171875,10.20887565612793,0.038307227194309235,-0.07661445438861847
1714858358356258800,7.3512587890625,10.204087257385254,0.033518824726343155,-0.07182604819536209
1714858358366208500,7.36120849609375,10.204087257385254,0.038307227194309235,-0.08140286058187485
1714858358376158000,7.371157958984375,10.20887565612793,0.028730420395731926,-0.08619125932455063
1714858358386107400,7.381107421875,10.194510459899902,0.043095629662275314,-0.07182604819536209
1714858358396056800,7.391056884765625,10.204087257385254,0.06703764945268631,-0.06224924325942993
1714858358406006300,7.40100634765625,10.194510459899902,0.07661445438861847,-0.038307227194309235
1714858358415955700,7.410955810546875,10.204087257385254,0.08619125932455063,-0.028730420395731926
1714858358425905200,7.4209052734375,10.194510459899902,0.10055647045373917,-0.019153613597154617
1714858358435854800,7.430854736328125,10.199298858642578,0.10534487664699554,-0.019153613597154617
1714858358445804300,7.44080419921875,10.199298858642578,0.1149216815829277,-0.019153613597154617
1714858358455753700,7.450753662109375,10.199298858642578,0.10055647045373917,-0.028730420395731926
1714858358465703200,7.460703125,10.194510459899902,0.090979665517807,-0.033518824726343155
1714858358475652600,7.470652587890625,10.194510459899902,0.08140286058187485,-0.047884032130241394
1714858358485602000,7.48060205078125,10.189722061157227,0.07182604819536209,-0.038307227194309235
1714858358495551700,7.4905517578125,10.199298858642578,0.06224924325942993,-0.043095629662275314
1714858358505501200,7.500501220703125,10.199298858642578,0.05746084079146385,-0.047884032130241394
1714858358515450600,7.51045068359375,10.199298858642578,0.05746084079146385,-0.05267243832349777
1714858358525400000,7.520400146484375,10.194510459899902,0.047884032130241394,-0.08619125932455063
1714858358535349500,7.530349609375,10.194510459899902,0.047884032130241394,-0.1149216815829277
1714858358545299000,7.540298828125,10.189722061157227,0.038307227194309235,-0.14365209639072418
1714858358555248400,7.550248291015625,10.199298858642578,0.047884032130241394,-0.15322890877723694
1714858358565198000,7.560197998046875,10.189722061157227,0.06224924325942993,-0.1628057211637497
1714858358575147500,7.5701474609375,10.189722061157227,0.06703764945268631,-0.15322890877723694
1714858358585097000,7.580096923828125,10.189722061157227,0.08140286058187485,-0.13407529890537262
1714858358595046400,7.59004638671875,10.199298858642578,0.090979665517807,-0.10534487664699554
1714858358604995800,7.599995849609375,10.194510459899902,0.10055647045373917,-0.08619125932455063
1714858358614945300,7.6099453125,10.218452453613281,0.09576806426048279,-0.06224924325942993
1714858358624895000,7.61989501953125,10.199298858642578,0.090979665517807,-0.05267243832349777
1714858358634844400,7.629844482421875,10.204087257385254,0.08619125932455063,-0.033518824726343155
1714858358644793900,7.6397939453125,10.199298858642578,0.06224924325942993,-0.038307227194309235
1714858358654743300,7.649743408203125,10.189722061157227,0.07182604819536209,-0.033518824726343155
1714858358664692700,7.659692626953125,10.194510459899902,0.06224924325942993,-0.038307227194309235
1714858358674642200,7.66964208984375,10.189722061157227,0.06224924325942993,-0.043095629662275314
1714858358684591600,7.679591552734375,10.199298858642578,0.043095629662275314,-0.05267243832349777
1714858358694541300,7.689541259765625,10.204087257385254,0.038307227194309235,-0.07661445438861847
1714858358704490800,7.69949072265625,10.204087257385254,0.028730420395731926,-0.09576806426048279
1714858358714440200,7.709440185546875,10.204087257385254,0.019153613597154617,-0.12449848651885986
1714858358724389600,7.7193896484375,10.194510459899902,0.028730420395731926,-0.15322890877723694
1714858358734339000,7.729339111328125,10.194510459899902,0.019153613597154617,-0.1628057211637497
1714858358744288500,7.73928857421875,10.18493366241455,0.023942016065120697,-0.1628057211637497
1714858358754238200,7.74923828125,10.204087257385254,0.038307227194309235,-0.14844051003456116
1714858358764187600,7.759187744140625,10.204087257385254,0.06224924325942993,-0.1149216815829277
1714858358774137000,7.76913720703125,10.199298858642578,0.09576806426048279,-0.08140286058187485
1714858358784086500,7.77908642578125,10.20887565612793,0.10534487664699554,-0.033518824726343155
1714858358794036000,7.789035888671875,10.194510459899902,0.12449848651885986,-0.004788403399288654
1714858358803985400,7.7989853515625,10.199298858642578,0.13407529890537262,0.009576806798577309
1714858358813934800,7.808934814453125,10.204087257385254,0.14365209639072418,0.023942016065120697
1714858358823884500,7.818884521484375,10.204087257385254,0.13407529890537262,0.019153613597154617
1714858358833834000,7.828833984375,10.194510459899902,0.1149216815829277,0.014365210197865963
1714858358843783400,7.838783447265625,10.194510459899902,0.11013327538967133,-0.023942016065120697
1714858358853733000,7.848733154296875,10.194510459899902,0.08140286058187485,-0.06224924325942993
1714858358863682600,7.8586826171875,10.189722061157227,0.06224924325942993,-0.09576806426048279
1714858358873632000,7.868632080078125,10.189722061157227,0.038307227194309235,-0.11971008777618408
1714858358883581700,7.878581787109375,10.189722061157227,0.028730420395731926,-0.14844051003456116
1714858358893531100,7.88853125,10.199298858642578,0.023942016065120697,-0.14365209639072418
1714858358903480600,7.89848046875,10.199298858642578,0.019153613597154617,-0.14365209639072418
1714858358913430300,7.90843017578125,10.20887565612793,0.019153613597154617,-0.12449848651885986
1714858358923379700,7.918379638671875,10.199298858642578,0.028730420395731926,-0.08619125932455063
1714858358933329400,7.928329345703125,10.199298858642578,0.043095629662275314,-0.06703764945268631
1714858358943278800,7.93827880859375,10.20887565612793,0.05746084079146385,-0.05267243832349777
1714858358953228300,7.948228271484375,10.194510459899902,0.06703764945268631,-0.028730420395731926
1714858358963178000,7.958177978515625,10.199298858642578,0.08619125932455063,-0.019153613597154617
1714858358973127400,7.96812744140625,10.199298858642578,0.11013327538967133,-0.023942016065120697
1714858358983076900,7.978076904296875,10.189722061157227,0.12449848651885986,-0.023942016065120697
1714858358993026600,7.988026611328125,10.194510459899902,0.12928688526153564,-0.038307227194309235
1714858359002976000,7.99797607421875,10.194510459899902,0.12928688526153564,-0.043095629662275314
1714858359012925400,8.007925537109376,10.189722061157227,0.12928688526153564,-0.05746084079146385
1714858359022875100,8.017875244140624,10.189722061157227,0.11013327538967133,-0.08619125932455063
1714858359032824600,8.027824462890624,10.199298858642578,0.09576806426048279,-0.10055647045373917
1714858359042774000,8.03777392578125,10.194510459899902,0.07661445438861847,-0.1149216815829277
1714858359052723700,8.0477236328125,10.189722061157227,0.05267243832349777,-0.12449848651885986
1714858359062673200,8.057673095703125,10.199298858642578,0.023942016065120697,-0.11971008777618408
1714858359072622600,8.06762255859375,10.20887565612793,0.004788403399288654,-0.11971008777618408
1714858359082572300,8.077572265625,10.204087257385254,0.004788403399288654,-0.090979665517807
1714858359092521700,8.087521728515625,10.204087257385254,0.019153613597154617,-0.06703764945268631
1714858359102471400,8.097471435546876,10.204087257385254,0.038307227194309235,-0.047884032130241394
1714858359112420900,8.1074208984375,10.199298858642578,0.05746084079146385,-0.019153613597154617
1714858359122370300,8.117370361328126,10.204087257385254,0.08619125932455063,-0.004788403399288654
1714858359132320000,8.127320068359374,10.204087257385254,0.09576806426048279,0.009576806798577309
1714858359142269400,8.13726953125,10.204087257385254,0.1149216815829277,0
1714858359152219000,8.147218994140625,10.194510459899902,0.11013327538967133,-0.028730420395731926
1714858359162168600,8.15716845703125,10.199298858642578,0.10534487664699554,-0.06224924325942993
1714858359172118000,8.167117919921875,10.194510459899902,0.09576806426048279,-0.10534487664699554
1714858359182067500,8.1770673828125,10.189722061157227,0.08140286058187485,-0.13407529890537262
1714858359192017200,8.18701708984375,10.199298858642578,0.07661445438861847,-0.14365209639072418
1714858359201966600,8.196966552734375,10.194510459899902,0.06224924325942993,-0.1388636976480484
1714858359211916000,8.206916015625,10.194510459899902,0.07182604819536209,-0.1149216815829277
1714858359221865700,8.21686572265625,10.199298858642578,0.06224924325942993,-0.08140286058187485
1714858359231815200,8.226815185546876,10.194510459899902,0.05746084079146385,-0.06703764945268631
1714858359241764900,8.236764892578124,10.194510459899902,0.05267243832349777,-0.038307227194309235
1714858359251714300,8.24671435546875,10.204087257385254,0.05746084079146385,-0.023942016065120697
1714858359261663700,8.256663818359375,10.189722061157227,0.05267243832349777,-0.014365210197865963
1714858359271613200,8.26661328125,10.20887565612793,0.047884032130241394,-0.019153613597154617
1714858359281562600,8.276562744140625,10.20887565612793,0.043095629662275314,-0.023942016065120697
1714858359291512300,8.28651220703125,10.213664054870605,0.038307227194309235,-0.047884032130241394
1714858359301461800,8.296461669921875,10.213664054870605,0.047884032130241394,-0.08619125932455063
1714858359311411200,8.3064111328125,10.20887565612793,0.07182604819536209,-0.08140286058187485
1714858359321360600,8.316360595703125,10.194510459899902,0.09576806426048279,-0.07661445438861847
1714858359331310000,8.32631005859375,10.194510459899902,0.11971008777618408,-0.07661445438861847
1714858359341259500,8.336259521484376,10.18493366241455,0.1149216815829277,-0.06703764945268631
1714858359351209000,8.346208984375,10.18493366241455,0.1149216815829277,-0.07182604819536209
1714858359361158700,8.35615869140625,10.194510459899902,0.11013327538967133,-0.08619125932455063
1714858359371108000,8.366108154296874,10.199298858642578,0.08619125932455063,-0.08619125932455063
1714858359381057500,8.3760576171875,10.199298858642578,0.08140286058187485,-0.08619125932455063
1714858359391007000,8.386007080078125,10.204087257385254,0.07661445438861847,-0.06703764945268631
1714858359400956400,8.395956298828125,10.194510459899902,0.06703764945268631,-0.038307227194309235
1714858359410905900,8.40590576171875,10.199298858642578,0.08140286058187485,-0.009576806798577309
1714858359420855600,8.41585546875,10.204087257385254,0.090979665517807,0.009576806798577309
1714858359430805000,8.425804931640625,10.20887565612793,0.09576806426048279,0.014365210197865963
1714858359440754400,8.43575439453125,10.199298858642578,0.06703764945268631,-0.014365210197865963
1714858359450704000,8.445703857421876,10.189722061157227,0.028730420395731926,-0.08619125932455063
1714858359460653300,8.4556533203125,10.194510459899902,-0.028730420395731926,-0.1628057211637497
1714858359470602800,8.465602783203124,10.199298858642578,-0.05267243832349777,-0.22026655077934265
1714858359480552200,8.47555224609375,10.189722061157227,-0.038307227194309235,-0.2537853717803955
1714858359490502000,8.485501953125,10.199298858642578,-0.023942016065120697,-0.2346317619085312
1714858359500451300,8.495451416015625,10.194510459899902,0.004788403399288654,-0.181959331035614
1714858359510400800,8.50540087890625,10.194510459899902,0.06224924325942993,-0.10055647045373917
1714858359520350200,8.51535009765625,10.20887565612793,0.10534487664699554,-0.009576806798577309
1714858359530299600,8.525299560546875,10.199298858642578,0.15801730751991272,0.05267243832349777
1714858359540249000,8.5352490234375,10.199298858642578,0.181959331035614,0.090979665517807
1714858359550198800,8.54519873046875,10.194510459899902,0.19632454216480255,0.10534487664699554
1714858359560148200,8.555148193359376,10.204087257385254,0.181959331035614,0.09576806426048279
1714858359570097700,8.56509765625,10.204087257385254,0.1628057211637497,0.043095629662275314
1714858359580047000,8.575047119140624,10.20887565612793,0.1388636976480484,-0.014365210197865963
1714858359589996500,8.58499658203125,10.199298858642578,0.11013327538967133,-0.07661445438861847
1714858359599946000,8.594946044921874,10.194510459899902,0.07661445438861847,-0.12449848651885986
1714858359609895400,8.6048955078125,10.18493366241455,0.05267243832349777,-0.1628057211637497
1714858359619845000,8.61484521484375,10.194510459899902,0.047884032130241394,-0.1867477297782898
1714858359629794600,8.624794677734375,10.194510459899902,0.038307227194309235,-0.19153612852096558
1714858359639744000,8.634743896484375,10.20887565612793,0.023942016065120697,-0.17717093229293823
1714858359649693400,8.644693359375,10.213664054870605,0.014365210197865963,-0.15322890877723694
1714858359659643000,8.654642822265625,10.204087257385254,-0.009576806798577309,-0.12928688526153564
1714858359669592300,8.66459228515625,10.204087257385254,-0.009576806798577309,-0.09576806426048279
1714858359679541800,8.674541748046876,10.204087257385254,-0.009576806798577309,-0.06224924325942993
1714858359689491500,8.684491455078126,10.20887565612793,-0.004788403399288654,-0.038307227194309235
1714858359699441000,8.69444091796875,10.204087257385254,0.023942016065120697,-0.014365210197865963
1714858359709390300,8.704390380859374,10.204087257385254,0.07182604819536209,0.004788403399288654
1714858359719339800,8.71433984375,10.189722061157227,0.1149216815829277,0.009576806798577309
1714858359729289200,8.724289306640625,10.194510459899902,0.15801730751991272,0.009576806798577309
1714858359739239000,8.734239013671875,10.194510459899902,0.1867477297782898,0
1714858359749188400,8.744188232421875,10.199298858642578,0.20111294090747833,-0.033518824726343155
1714858359759137800,8.7541376953125,10.194510459899902,0.181959331035614,-0.06703764945268631
1714858359769087500,8.76408740234375,10.194510459899902,0.1388636976480484,-0.11971008777618408
1714858359779037000,8.774036865234375,10.199298858642578,0.09576806426048279,-0.16759411990642548
1714858359788986400,8.783986328125,10.194510459899902,0.047884032130241394,-0.1867477297782898
1714858359798936000,8.79393603515625,10.194510459899902,0,-0.19153612852096558
1714858359808885500,8.803885498046874,10.204087257385254,-0.028730420395731926,-0.1628057211637497
1714858359818835000,8.8138349609375,10.213664054870605,-0.043095629662275314,-0.11971008777618408
1714858359828784600,8.82378466796875,10.218452453613281,-0.023942016065120697,-0.05746084079146385
1714858359838734000,8.833734130859375,10.213664054870605,0.009576806798577309,0.009576806798577309
1714858359848683800,8.843683837890625,10.218452453613281,0.05746084079146385,0.06224924325942993
1714858359858633200,8.85363330078125,10.204087257385254,0.08619125932455063,0.08619125932455063
1714858359868582700,8.863582763671875,10.204087257385254,0.11971008777618408,0.08140286058187485
1714858359878532400,8.873532470703125,10.20887565612793,0.13407529890537262,0.047884032130241394
1714858359888481800,8.883481689453125,10.20887565612793,0.12928688526153564,-0.014365210197865963
1714858359898431200,8.89343115234375,10.199298858642578,0.12449848651885986,-0.07182604819536209
1714858359908381000,8.903380859375,10.194510459899902,0.10055647045373917,-0.12449848651885986
1714858359918330400,8.913330322265624,10.189722061157227,0.09576806426048279,-0.17238251864910126
1714858359928279800,8.92327978515625,10.199298858642578,0.090979665517807,-0.1867477297782898
1714858359938229500,8.9332294921875,10.199298858642578,0.07661445438861847,-0.17717093229293823
1714858359948179000,8.943178955078125,10.199298858642578,0.06703764945268631,-0.16759411990642548
1714858359958128400,8.95312841796875,10.20887565612793,0.06703764945268631,-0.12449848651885986
1714858359968078000,8.963078125,10.20887565612793,0.06224924325942993,-0.09576806426048279
1714858359978027500,8.973027587890625,10.218452453613281,0.06703764945268631,-0.047884032130241394
1714858359987977200,8.982977294921875,10.204087257385254,0.043095629662275314,-0.023942016065120697
1714858359997926700,8.9929267578125,10.213664054870605,0.028730420395731926,-0.019153613597154617
1714858360007876000,9.0028759765625,10.213664054870605,0.009576806798577309,-0.028730420395731926
1714858360017825800,9.01282568359375,10.213664054870605,0.019153613597154617,-0.019153613597154617
1714858360027775200,9.022775146484374,10.20887565612793,0.019153613597154617,-0.033518824726343155
1714858360037724700,9.032724609375,10.218452453613281,0.047884032130241394,-0.033518824726343155
1714858360047674400,9.04267431640625,10.204087257385254,0.07182604819536209,-0.038307227194309235
1714858360057623800,9.052623779296875,10.194510459899902,0.10055647045373917,-0.05267243832349777
1714858360067573200,9.0625732421875,10.204087257385254,0.12928688526153564,-0.06703764945268631
1714858360077523000,9.07252294921875,10.199298858642578,0.14365209639072418,-0.07661445438861847
1714858360087472400,9.082472412109375,10.20887565612793,0.12928688526153564,-0.09576806426048279
1714858360097421800,9.092421875,10.199298858642578,0.11971008777618408,-0.11971008777618408
1714858360107371500,9.10237158203125,10.204087257385254,0.090979665517807,-0.11971008777618408
1714858360117321000,9.112321044921876,10.204087257385254,0.07182604819536209,-0.13407529890537262
1714858360127270700,9.122270751953126,10.20887565612793,0.05267243832349777,-0.12449848651885986
1714858360137220000,9.13222021484375,10.204087257385254,0.038307227194309235,-0.09576806426048279
1714858360147169500,9.14216943359375,10.20887565612793,0.028730420395731926,-0.06703764945268631
1714858360157119200,9.152119140625,10.213664054870605,0.05267243832349777,-0.038307227194309235
1714858360167068700,9.162068603515625,10.218452453613281,0.06224924325942993,-0.009576806798577309
1714858360177018000,9.17201806640625,10.20887565612793,0.08140286058187485,0.009576806798577309
1714858360186967800,9.1819677734375,10.213664054870605,0.090979665517807,0
1714858360196917200,9.191917236328125,10.204087257385254,0.090979665517807,-0.014365210197865963
1714858360206866700,9.20186669921875,10.213664054870605,0.08140286058187485,-0.047884032130241394
1714858360216816400,9.21181640625,10.204087257385254,0.08140286058187485,-0.07661445438861847
1714858360226765800,9.221765869140626,10.204087257385254,0.06224924325942993,-0.10534487664699554
1714858360236715300,9.23171533203125,10.199298858642578,0.043095629662275314,-0.1388636976480484
1714858360246665000,9.2416650390625,10.213664054870605,0.05267243832349777,-0.14365209639072418
1714858360256614400,9.251614501953124,10.213664054870605,0.05267243832349777,-0.13407529890537262
1714858360266564000,9.261564208984375,10.213664054870605,0.06224924325942993,-0.10534487664699554
1714858360276513500,9.271513427734375,10.20887565612793,0.08619125932455063,-0.08140286058187485
1714858360286463000,9.281462890625,10.204087257385254,0.08619125932455063,-0.06224924325942993
1714858360296412400,9.291412353515625,10.204087257385254,0.10534487664699554,-0.043095629662275314
1714858360306361900,9.30136181640625,10.218452453613281,0.10534487664699554,-0.028730420395731926
1714858360316311300,9.311311279296875,10.223240852355957,0.08619125932455063,-0.014365210197865963
1714858360326261000,9.321260986328125,10.228029251098633,0.08140286058187485,-0.023942016065120697
1714858360336210400,9.33121044921875,10.213664054870605,0.06224924325942993,-0.043095629662275314
1714858360346159900,9.341159912109376,10.218452453613281,0.05746084079146385,-0.07182604819536209
1714858360356109300,9.351109375,10.20887565612793,0.06224924325942993,-0.090979665517807
1714858360366058800,9.361058837890624,10.20887565612793,0.05267243832349777,-0.08619125932455063
1714858360376008200,9.37100830078125,10.218452453613281,0.06224924325942993,-0.08140286058187485
1714858360385958000,9.3809580078125,10.204087257385254,0.07661445438861847,-0.090979665517807
1714858360395907300,9.3909072265625,10.20887565612793,0.08140286058187485,-0.08140286058187485
1714858360405856800,9.400856689453125,10.223240852355957,0.08140286058187485,-0.06224924325942993
1714858360415806200,9.41080615234375,10.213664054870605,0.08140286058187485,-0.06703764945268631
1714858360425755600,9.420755615234375,10.20887565612793,0.07182604819536209,-0.07182604819536209
1714858360435705000,9.430705078125,10.213664054870605,0.07182604819536209,-0.07661445438861847
1714858360445654500,9.440654541015626,10.204087257385254,0.05746084079146385,-0.07661445438861847
1714858360455604200,9.450604248046876,10.204087257385254,0.07182604819536209,-0.07182604819536209
1714858360465553700,9.4605537109375,10.20887565612793,0.07182604819536209,-0.06224924325942993
1714858360475503000,9.470503173828124,10.218452453613281,0.07182604819536209,-0.06224924325942993
1714858360485452500,9.48045263671875,10.218452453613281,0.090979665517807,-0.05746084079146385
1714858360495402000,9.490402099609375,10.213664054870605,0.10055647045373917,-0.043095629662275314
1714858360505351400,9.500351318359375,10.213664054870605,0.1149216815829277,-0.043095629662275314
1714858360515301000,9.510301025390625,10.20887565612793,0.11013327538967133,-0.047884032130241394
1714858360525250600,9.52025048828125,10.20887565612793,0.09576806426048279,-0.06224924325942993
1714858360535200000,9.530199951171875,10.20887565612793,0.08619125932455063,-0.07661445438861847
1714858360545149400,9.5401494140625,10.204087257385254,0.06224924325942993,-0.08140286058187485
1714858360555099000,9.550098876953125,10.213664054870605,0.038307227194309235,-0.09576806426048279
1714858360565048300,9.56004833984375,10.213664054870605,0.023942016065120697,-0.10534487664699554
1714858360574997800,9.569997802734376,10.218452453613281,0.023942016065120697,-0.10055647045373917
1714858360584947500,9.579947509765624,10.218452453613281,0.023942016065120697,-0.08140286058187485
1714858360594897000,9.58989697265625,10.20887565612793,0.047884032130241394,-0.07182604819536209
1714858360604846300,9.599846435546874,10.213664054870605,0.06703764945268631,-0.047884032130241394
1714858360614795800,9.609795654296875,10.218452453613281,0.07182604819536209,-0.038307227194309235
1714858360624745200,9.6197451171875,10.218452453613281,0.10055647045373917,-0.038307227194309235
1714858360634694700,9.629694580078125,10.213664054870605,0.11013327538967133,-0.033518824726343155
1714858360644644400,9.639644287109375,10.204087257385254,0.10534487664699554,-0.043095629662275314
1714858360654593800,9.64959375,10.20887565612793,0.11013327538967133,-0.05746084079146385
1714858360664543200,9.659543212890625,10.213664054870605,0.10055647045373917,-0.07661445438861847
1714858360674492700,9.66949267578125,10.20887565612793,0.08140286058187485,-0.10055647045373917
1714858360684442000,9.679442138671876,10.213664054870605,0.07182604819536209,-0.08619125932455063
1714858360694391600,9.6893916015625,10.20887565612793,0.06703764945268631,-0.090979665517807
1714858360704341000,9.699341064453124,10.204087257385254,0.06703764945268631,-0.08140286058187485
1714858360714290700,9.709290771484374,10.20887565612793,0.07182604819536209,-0.07661445438861847
1714858360724240100,9.719240234375,10.213664054870605,0.06224924325942993,-0.07182604819536209
1714858360734189600,9.729189453125,10.223240852355957,0.06703764945268631,-0.06703764945268631
1714858360744139000,9.739138916015625,10.228029251098633,0.06224924325942993,-0.047884032130241394
1714858360754088400,9.74908837890625,10.218452453613281,0.06703764945268631,-0.05267243832349777
1714858360764038100,9.7590380859375,10.213664054870605,0.06703764945268631,-0.047884032130241394
1714858360773987600,9.768987548828125,10.218452453613281,0.06224924325942993,-0.05267243832349777
1714858360783937000,9.77893701171875,10.213664054870605,0.06703764945268631,-0.05746084079146385
1714858360793886700,9.78888671875,10.218452453613281,0.08140286058187485,-0.07182604819536209
1714858360803836200,9.798836181640626,10.213664054870605,0.090979665517807,-0.07182604819536209
1714858360813785900,9.808785888671874,10.223240852355957,0.10055647045373917,-0.06703764945268631
1714858360823735300,9.8187353515625,10.213664054870605,0.10055647045373917,-0.06703764945268631
1714858360833684700,9.828684814453124,10.20887565612793,0.10055647045373917,-0.06224924325942993
1714858360843634400,9.838634521484375,10.204087257385254,0.10534487664699554,-0.06703764945268631
1714858360853584000,9.848583984375,10.20887565612793,0.090979665517807,-0.07661445438861847
1714858360863533300,9.858533203125,10.20887565612793,0.08140286058187485,-0.07661445438861847
1714858360873483000,9.86848291015625,10.218452453613281,0.06703764945268631,-0.08140286058187485
1714858360883432400,9.878432373046875,10.218452453613281,0.05267243832349777,-0.08140286058187485
1714858360893382000,9.8883818359375,10.213664054870605,0.043095629662275314,-0.090979665517807
1714858360903331600,9.89833154296875,10.189722061157227,0.038307227194309235,-0.08619125932455063
1714858360913281000,9.908281005859376,10.218452453613281,0.043095629662275314,-0.05267243832349777
1714858360923230500,9.91823046875,10.266336441040039,0.05746084079146385,-0.043095629662275314
1714858360933180200,9.92818017578125,10.199298858642578,0.08619125932455063,-0.05267243832349777
1714858360943129600,9.938129638671874,10.218452453613281,0.08619125932455063,-0.038307227194309235
1714858360953079300,9.948079345703125,10.20887565612793,0.08619125932455063,-0.043095629662275314
1714858360963028700,9.95802880859375,10.20887565612793,0.10534487664699554,-0.038307227194309235
1714858360972978200,9.967978271484375,10.218452453613281,0.10055647045373917,-0.06703764945268631
1714858360982928000,9.977927978515625,10.213664054870605,0.09576806426048279,-0.07182604819536209
1714858360992877300,9.987877197265625,10.213664054870605,0.08619125932455063,-0.10055647045373917
1714858361002826800,9.99782666015625,10.20887565612793,0.07661445438861847,-0.10055647045373917
1714858361012776400,10.0077763671875,10.20887565612793,0.06703764945268631,-0.10534487664699554
1714858361022726000,10.017725830078126,10.199298858642578,0.06224924325942993,-0.10055647045373917
1714858361032675300,10.02767529296875,10.20887565612793,0.06703764945268631,-0.090979665517807
1714858361042625000,10.037625,10.213664054870605,0.06224924325942993,-0.07182604819536209
1714858361052574500,10.047574462890625,10.213664054870605,0.06224924325942993,-0.05267243832349777
1714858361062524000,10.05752392578125,10.20887565612793,0.07182604819536209,-0.047884032130241394
1714858361072473600,10.0674736328125,10.218452453613281,0.07661445438861847,-0.038307227194309235
1714858361082423000,10.077423095703125,10.204087257385254,0.07182604819536209,-0.038307227194309235
1714858361092372700,10.087372802734375,10.213664054870605,0.08140286058187485,-0.033518824726343155
1714858361102322200,10.097322265625,10.20887565612793,0.08140286058187485,-0.028730420395731926
1714858361112271600,10.107271728515625,10.20887565612793,0.08140286058187485,-0.028730420395731926
1714858361122221300,10.11722119140625,10.213664054870605,0.08619125932455063,-0.038307227194309235
1714858361132170800,10.127170654296876,10.213664054870605,0.07661445438861847,-0.05267243832349777
1714858361142120200,10.1371201171875,10.213664054870605,0.06224924325942993,-0.06224924325942993
