time,seconds_elapsed,z,y,x
1714858351083172000,0.078172119140625,9.865307807922363,-0.0005985504249110818,-0.031124621629714966
1714858351093130800,0.088130859375,9.84615421295166,0.004189853090792894,-0.026336219161748886
1714858351103080200,0.098080078125,9.865307807922363,0.008978256024420261,-0.021547814831137657
1714858351113029600,0.108029541015625,9.850942611694336,0.018555063754320145,-0.0071826050989329815
1714858351122979000,0.11797900390625,9.855731010437012,0.018555063754320145,-0.011971008032560349
1714858351132928300,0.12792822265625,9.855731010437012,0.008978256024420261,-0.016759412363171577
1714858351142877700,0.137877685546875,9.850942611694336,0.013766659423708916,-0.011971008032560349
1714858351152827100,0.1478271484375,9.860519409179688,0.013766659423708916,-0.002394201699644327
1714858351162776600,0.157776611328125,9.850942611694336,0.028131870552897453,0.011971008032560349
1714858351172726000,0.16772607421875,9.860519409179688,0.028131870552897453,0.011971008032560349
1714858351182675500,0.177675537109375,9.850942611694336,0.023343466222286224,0.016759412363171577
1714858351192625000,0.187625,9.84615421295166,0.03770867735147476,0.0071826050989329815
1714858351202574300,0.19757421875,9.850942611694336,0.028131870552897453,-0.002394201699644327
1714858351212523800,0.207523681640625,9.855731010437012,0.023343466222286224,-0.002394201699644327
1714858351222473200,0.21747314453125,9.850942611694336,0.008978256024420261,-0.0071826050989329815
1714858351232422700,0.227422607421875,9.850942611694336,0.013766659423708916,-0.011971008032560349
1714858351242372000,0.2373720703125,9.84615421295166,0.018555063754320145,-0.011971008032560349
1714858351252321500,0.247321533203125,9.850942611694336,0.013766659423708916,-0.002394201699644327
1714858351262271000,0.25727099609375,9.855731010437012,0.018555063754320145,-0.0071826050989329815
1714858351272220400,0.267220458984375,9.850942611694336,0.018555063754320145,-0.011971008032560349
1714858351282169900,0.277169921875,9.850942611694336,0.023343466222286224,-0.002394201699644327
1714858351292119300,0.287119384765625,9.850942611694336,0.023343466222286224,-0.0071826050989329815
1714858351302068700,0.29706884765625,9.84615421295166,0.04249707981944084,-0.011971008032560349
1714858351312018200,0.30701806640625,9.850942611694336,0.023343466222286224,-0.026336219161748886
1714858351321967600,0.316967529296875,9.855731010437012,0.028131870552897453,-0.016759412363171577
1714858351331916800,0.326916748046875,9.855731010437012,0.018555063754320145,-0.021547814831137657
1714858351341866200,0.3368662109375,9.850942611694336,0.008978256024420261,-0.016759412363171577
1714858351351815700,0.346815673828125,9.860519409179688,0.004189853090792894,-0.026336219161748886
1714858351361765000,0.35676513671875,9.855731010437012,0.004189853090792894,-0.011971008032560349
1714858351371714600,0.366714599609375,9.855731010437012,0.013766659423708916,-0.0071826050989329815
1714858351381664000,0.3766640625,9.855731010437012,0.013766659423708916,-0.002394201699644327
1714858351391613400,0.386613525390625,9.855731010437012,0.013766659423708916,-0.0071826050989329815
1714858351401563000,0.39656298828125,9.84615421295166,0.018555063754320145,-0.0071826050989329815
1714858351411512300,0.40651220703125,9.841365814208984,0.018555063754320145,0.002394201699644327
1714858351421461800,0.416461669921875,9.84615421295166,0.023343466222286224,-0.002394201699644327
1714858351431411500,0.426411376953125,9.855731010437012,0.03770867735147476,-0.0071826050989329815
1714858351441361000,0.43636083984375,9.84615421295166,0.028131870552897453,-0.0071826050989329815
1714858351451310300,0.446310302734375,9.855731010437012,0.028131870552897453,-0.021547814831137657
1714858351461259800,0.456259765625,9.860519409179688,0.028131870552897453,-0.026336219161748886
1714858351471209200,0.466209228515625,9.860519409179688,0.028131870552897453,-0.016759412363171577
1714858351481158700,0.47615869140625,9.855731010437012,0.023343466222286224,-0.002394201699644327
1714858351491108000,0.486108154296875,9.84615421295166,0.023343466222286224,0.002394201699644327
1714858351501057800,0.496057861328125,9.84615421295166,0.023343466222286224,-0.0071826050989329815
1714858351511007200,0.50600732421875,9.841365814208984,0.018555063754320145,0.0071826050989329815
1714858351520956700,0.515956787109375,9.855731010437012,0.023343466222286224,0.002394201699644327
1714858351530906000,0.525906005859375,9.855731010437012,0.023343466222286224,0.002394201699644327
1714858351540855600,0.53585546875,9.860519409179688,0.023343466222286224,0.0071826050989329815
1714858351550805000,0.545804931640625,9.860519409179688,0.018555063754320145,0.002394201699644327
1714858351560754700,0.555754638671875,9.850942611694336,0.023343466222286224,-0.002394201699644327
1714858351570704100,0.5657041015625,9.84615421295166,0.023343466222286224,-0.002394201699644327
1714858351580653600,0.575653564453125,9.850942611694336,0.023343466222286224,-0.002394201699644327
1714858351590603000,0.58560302734375,9.860519409179688,0.03292027488350868,-0.0071826050989329815
1714858351600552400,0.595552490234375,9.850942611694336,0.023343466222286224,-0.011971008032560349
1714858351610502000,0.605501953125,9.860519409179688,0.008978256024420261,-0.016759412363171577
1714858351620451300,0.615451416015625,9.855731010437012,0.018555063754320145,-0.031124621629714966
1714858351630401000,0.625401123046875,9.855731010437012,0.023343466222286224,-0.031124621629714966
1714858351640350500,0.6353505859375,9.84615421295166,0.018555063754320145,-0.026336219161748886
1714858351650300000,0.6452998046875,9.850942611694336,0.018555063754320145,-0.021547814831137657
1714858351660249300,0.655249267578125,9.841365814208984,0.013766659423708916,-0.021547814831137657
1714858351670198800,0.66519873046875,9.855731010437012,0.023343466222286224,-0.016759412363171577
1714858351680148200,0.675148193359375,9.860519409179688,0.013766659423708916,-0.002394201699644327
1714858351690098000,0.685097900390625,9.850942611694336,0.018555063754320145,-0.0071826050989329815
1714858351700047400,0.69504736328125,9.860519409179688,0.018555063754320145,0.002394201699644327
1714858351709996800,0.704996826171875,9.84615421295166,0.023343466222286224,0.016759412363171577
1714858351719946200,0.7149462890625,9.855731010437012,0.028131870552897453,0.016759412363171577
1714858351729895700,0.724895751953125,9.850942611694336,0.023343466222286224,0.011971008032560349
1714858351739845000,0.73484521484375,9.841365814208984,0.028131870552897453,0.0071826050989329815
1714858351749794600,0.744794677734375,9.850942611694336,0.023343466222286224,-0.011971008032560349
1714858351759744300,0.754744140625,9.855731010437012,0.008978256024420261,-0.021547814831137657
1714858351769693700,0.764693603515625,9.855731010437012,0.013766659423708916,-0.031124621629714966
1714858351779643100,0.77464306640625,9.841365814208984,0.013766659423708916,-0.035913024097681046
1714858351789592600,0.784592529296875,9.836577415466309,0.018555063754320145,-0.031124621629714966
1714858351799542000,0.7945419921875,9.855731010437012,0.018555063754320145,-0.031124621629714966
1714858351809491500,0.804491455078125,9.84615421295166,0.018555063754320145,-0.021547814831137657
1714858351819441200,0.814441162109375,9.84615421295166,0.028131870552897453,0.002394201699644327
1714858351829390600,0.824390625,9.850942611694336,0.028131870552897453,0.016759412363171577
1714858351839340000,0.834340087890625,9.850942611694336,0.023343466222286224,0.016759412363171577
1714858351849289500,0.84428955078125,9.855731010437012,0.028131870552897453,0.016759412363171577
1714858351859239000,0.854239013671875,9.855731010437012,0.018555063754320145,0.002394201699644327
1714858351869188400,0.864188232421875,9.860519409179688,0.028131870552897453,0.002394201699644327
1714858351879137800,0.8741376953125,9.850942611694336,0.018555063754320145,-0.0071826050989329815
1714858351889087500,0.88408740234375,9.860519409179688,0.013766659423708916,-0.011971008032560349
1714858351899037000,0.894036865234375,9.855731010437012,0.023343466222286224,-0.016759412363171577
1714858351908986400,0.903986328125,9.84615421295166,0.028131870552897453,-0.0071826050989329815
1714858351918935800,0.913935791015625,9.84615421295166,0.028131870552897453,-0.011971008032560349
1714858351928885200,0.92388525390625,9.850942611694336,0.03770867735147476,-0.002394201699644327
1714858351938834700,0.933834716796875,9.84615421295166,0.03770867735147476,-0.002394201699644327
1714858351948784400,0.943784423828125,9.855731010437012,0.018555063754320145,0.0071826050989329815
1714858351958733800,0.95373388671875,9.84615421295166,0.008978256024420261,-0.002394201699644327
1714858351968683300,0.963683349609375,9.855731010437012,0.004189853090792894,0.0071826050989329815
1714858351978632700,0.9736328125,9.855731010437012,-0.0005985504249110818,-0.002394201699644327
1714858351988582100,0.98358203125,9.855731010437012,0.008978256024420261,-0.002394201699644327
1714858351998531600,0.993531494140625,9.850942611694336,0.013766659423708916,0.002394201699644327
1714858352008481000,1.00348095703125,9.850942611694336,0.004189853090792894,-0.0071826050989329815
1714858352018430700,1.0134306640625,9.850942611694336,0.013766659423708916,0.002394201699644327
1714858352028380200,1.023380126953125,9.850942611694336,0.023343466222286224,-0.0071826050989329815
1714858352038329600,1.03332958984375,9.84615421295166,0.023343466222286224,-0.011971008032560349
1714858352048279000,1.043279052734375,9.850942611694336,0.023343466222286224,-0.016759412363171577
1714858352058228500,1.053228515625,9.84615421295166,0.023343466222286224,-0.016759412363171577
1714858352068178000,1.063177978515625,9.841365814208984,0.023343466222286224,-0.011971008032560349
1714858352078127600,1.073127685546875,9.84615421295166,0.028131870552897453,-0.016759412363171577
1714858352088077000,1.0830771484375,9.850942611694336,0.013766659423708916,-0.026336219161748886
1714858352098026500,1.093026611328125,9.841365814208984,0.013766659423708916,-0.035913024097681046
1714858352107976000,1.102975830078125,9.84615421295166,0.018555063754320145,-0.026336219161748886
1714858352117925400,1.11292529296875,9.841365814208984,0.04249707981944084,-0.0071826050989329815
1714858352127874800,1.122874755859375,9.831789016723633,0.03770867735147476,0.002394201699644327
1714858352137824300,1.13282421875,9.841365814208984,0.03770867735147476,0.016759412363171577
1714858352147774000,1.14277392578125,9.855731010437012,0.028131870552897453,0.0071826050989329815
1714858352157723400,1.152723388671875,9.850942611694336,0.023343466222286224,0.011971008032560349
1714858352167672800,1.1626728515625,9.850942611694336,0.013766659423708916,0.002394201699644327
1714858352177622300,1.172622314453125,9.84615421295166,0.008978256024420261,-0.011971008032560349
1714858352187571700,1.18257177734375,9.841365814208984,0.008978256024420261,-0.002394201699644327
1714858352197521200,1.192521240234375,9.84615421295166,0.004189853090792894,-0.0071826050989329815
1714858352207470600,1.202470703125,9.84615421295166,0.004189853090792894,-0.002394201699644327
1714858352217420300,1.212420166015625,9.850942611694336,0.004189853090792894,0.011971008032560349
1714858352227369700,1.22236962890625,9.850942611694336,0.013766659423708916,0.002394201699644327
1714858352237319200,1.232319091796875,9.850942611694336,0.023343466222286224,0.002394201699644327
1714858352247268600,1.2422685546875,9.855731010437012,0.028131870552897453,-0.011971008032560349
1714858352257218000,1.252218017578125,9.841365814208984,0.03292027488350868,-0.011971008032560349
1714858352267167500,1.26216748046875,9.84615421295166,0.03292027488350868,-0.016759412363171577
1714858352277117200,1.2721171875,9.836577415466309,0.03770867735147476,-0.011971008032560349
1714858352287066600,1.282066650390625,9.850942611694336,0.03292027488350868,-0.021547814831137657
1714858352297016000,1.29201611328125,9.84615421295166,0.03770867735147476,-0.031124621629714966
1714858352306965500,1.301965576171875,9.850942611694336,0.028131870552897453,-0.021547814831137657
1714858352316915000,1.3119150390625,9.850942611694336,0.018555063754320145,-0.0071826050989329815
1714858352326864400,1.321864501953125,9.850942611694336,0.03292027488350868,0.002394201699644327
1714858352336813800,1.331813720703125,9.850942611694336,0.03292027488350868,0.0071826050989329815
1714858352346763500,1.341763427734375,9.84615421295166,0.028131870552897453,0.011971008032560349
1714858352356713000,1.351712890625,9.84615421295166,0.023343466222286224,0.016759412363171577
1714858352366662400,1.361662353515625,9.855731010437012,0.023343466222286224,0.011971008032560349
1714858352376611800,1.37161181640625,9.850942611694336,0.008978256024420261,0.0071826050989329815
1714858352386561300,1.381561279296875,9.84615421295166,0.008978256024420261,-0.002394201699644327
1714858352396510700,1.3915107421875,9.855731010437012,0.008978256024420261,-0.021547814831137657
1714858352406460400,1.40146044921875,9.84615421295166,0.004189853090792894,-0.021547814831137657
1714858352416409900,1.411409912109375,9.84615421295166,0.004189853090792894,-0.021547814831137657
1714858352426359300,1.421359375,9.84615421295166,0.008978256024420261,-0.021547814831137657
1714858352436308700,1.431308837890625,9.84615421295166,0.018555063754320145,-0.016759412363171577
1714858352446258200,1.441258056640625,9.84615421295166,0.028131870552897453,-0.0071826050989329815
1714858352456207600,1.45120751953125,9.850942611694336,0.03770867735147476,-0.002394201699644327
1714858352466157000,1.461156982421875,9.855731010437012,0.03770867735147476,0.002394201699644327
1714858352476106800,1.471106689453125,9.855731010437012,0.03770867735147476,0.021547814831137657
1714858352486056200,1.48105615234375,9.84615421295166,0.03770867735147476,0.016759412363171577
1714858352496005600,1.491005615234375,9.850942611694336,0.03292027488350868,-0.002394201699644327
1714858352505955000,1.500955078125,9.850942611694336,0.028131870552897453,-0.0071826050989329815
1714858352515904500,1.510904541015625,9.855731010437012,0.013766659423708916,-0.011971008032560349
1714858352525854000,1.52085400390625,9.855731010437012,0.013766659423708916,-0.0071826050989329815
1714858352535803600,1.5308037109375,9.855731010437012,0.004189853090792894,-0.021547814831137657
1714858352545753000,1.540753173828125,9.850942611694336,0.008978256024420261,-0.011971008032560349
1714858352555702500,1.55070263671875,9.841365814208984,0.013766659423708916,-0.011971008032560349
1714858352565652000,1.56065185546875,9.850942611694336,0.023343466222286224,-0.0071826050989329815
1714858352575601400,1.570601318359375,9.836577415466309,0.018555063754320145,-0.002394201699644327
1714858352585550800,1.58055078125,9.850942611694336,0.023343466222286224,-0.0071826050989329815
1714858352595500300,1.590500244140625,9.84615421295166,0.023343466222286224,-0.011971008032560349
1714858352605450000,1.600449951171875,9.850942611694336,0.028131870552897453,-0.011971008032560349
1714858352615399400,1.6103994140625,9.855731010437012,0.03292027488350868,-0.016759412363171577
1714858352625348900,1.620348876953125,9.841365814208984,0.03292027488350868,0.002394201699644327
1714858352635298300,1.63029833984375,9.841365814208984,0.03292027488350868,0.0071826050989329815
1714858352645247700,1.640247802734375,9.850942611694336,0.028131870552897453,0.011971008032560349
1714858352655197200,1.650197265625,9.850942611694336,0.013766659423708916,0.011971008032560349
1714858352665147000,1.66014697265625,9.84615421295166,0.008978256024420261,0.0071826050989329815
1714858352675096300,1.670096435546875,9.850942611694336,0.013766659423708916,0.0071826050989329815
1714858352685045800,1.680045654296875,9.850942611694336,0.008978256024420261,0.002394201699644327
1714858352694995200,1.6899951171875,9.841365814208984,0.008978256024420261,-0.0071826050989329815
1714858352704944600,1.699944580078125,9.841365814208984,-0.0005985504249110818,-0.011971008032560349
1714858352714894000,1.70989404296875,9.84615421295166,-0.0005985504249110818,-0.026336219161748886
1714858352724843500,1.719843505859375,9.841365814208984,0.028131870552897453,-0.011971008032560349
1714858352734793200,1.729793212890625,9.850942611694336,0.03292027488350868,0.002394201699644327
1714858352744742700,1.73974267578125,9.84615421295166,0.028131870552897453,0.0071826050989329815
1714858352754692000,1.749692138671875,9.841365814208984,0.04728548228740692,0.026336219161748886
1714858352764641500,1.7596416015625,9.850942611694336,0.03770867735147476,0.021547814831137657
1714858352774591000,1.769591064453125,9.855731010437012,0.04249707981944084,0.011971008032560349
1714858352784540400,1.77954052734375,9.855731010437012,0.04728548228740692,0.002394201699644327
1714858352794490000,1.789489990234375,9.84615421295166,0.028131870552897453,-0.011971008032560349
1714858352804439600,1.799439453125,9.850942611694336,0.013766659423708916,-0.016759412363171577
1714858352814389000,1.809388916015625,9.84615421295166,0.008978256024420261,-0.026336219161748886
1714858352824338400,1.81933837890625,9.850942611694336,0.004189853090792894,-0.040701430290937424
1714858352834287900,1.829287841796875,9.84615421295166,-0.005386953707784414,-0.026336219161748886
1714858352844237300,1.8392373046875,9.84615421295166,0.008978256024420261,-0.011971008032560349
1714858352854186800,1.849186767578125,9.84615421295166,0.013766659423708916,0.0071826050989329815
1714858352864136400,1.859136474609375,9.84615421295166,0.013766659423708916,0.021547814831137657
1714858352874086000,1.8690859375,9.84615421295166,0.023343466222286224,0.021547814831137657
1714858352884035300,1.879035400390625,9.860519409179688,0.028131870552897453,0.021547814831137657
1714858352893984800,1.88898486328125,9.84615421295166,0.028131870552897453,0.002394201699644327
1714858352903934200,1.898934326171875,9.855731010437012,0.028131870552897453,-0.002394201699644327
1714858352913883600,1.908883544921875,9.841365814208984,0.03292027488350868,-0.0071826050989329815
1714858352923833300,1.918833251953125,9.850942611694336,0.03770867735147476,-0.0071826050989329815
1714858352933782800,1.92878271484375,9.841365814208984,0.03292027488350868,-0.0071826050989329815
1714858352943732200,1.938732177734375,9.850942611694336,0.03292027488350868,-0.0071826050989329815
1714858352953681700,1.948681640625,9.84615421295166,0.028131870552897453,-0.002394201699644327
1714858352963631000,1.958631103515625,9.84615421295166,0.023343466222286224,-0.016759412363171577
1714858352973580500,1.96858056640625,9.850942611694336,0.008978256024420261,-0.0071826050989329815
1714858352983530000,1.978530029296875,9.855731010437012,-0.005386953707784414,-0.016759412363171577
1714858352993479700,1.988479736328125,9.850942611694336,-0.005386953707784414,-0.031124621629714966
1714858353003429000,1.99842919921875,9.855731010437012,-0.005386953707784414,-0.026336219161748886
1714858353013378600,2.008378662109375,9.84615421295166,-0.01496376097202301,-0.016759412363171577
1714858353023328000,2.018327880859375,9.850942611694336,0.004189853090792894,-0.011971008032560349
1714858353033277400,2.02827734375,9.850942611694336,0.008978256024420261,0.002394201699644327
1714858353043227000,2.038226806640625,9.850942611694336,0.018555063754320145,0.0071826050989329815
1714858353053176300,2.04817626953125,9.860519409179688,0.03292027488350868,0.021547814831137657
1714858353063126000,2.0581259765625,9.850942611694336,0.04728548228740692,0.031124621629714966
1714858353073075500,2.068075439453125,9.84615421295166,0.05686229094862938,0.021547814831137657
1714858353083025000,2.07802490234375,9.841365814208984,0.04728548228740692,0.026336219161748886
1714858353092974300,2.087974365234375,9.855731010437012,0.04728548228740692,0.016759412363171577
1714858353102923800,2.097923828125,9.841365814208984,0.03770867735147476,0.002394201699644327
1714858353112873200,2.107873291015625,9.841365814208984,0.023343466222286224,-0.016759412363171577
1714858353122823000,2.117822998046875,9.850942611694336,0.018555063754320145,-0.021547814831137657
1714858353132772400,2.1277724609375,9.860519409179688,0.018555063754320145,-0.031124621629714966
1714858353142721800,2.1377216796875,9.850942611694336,0.018555063754320145,-0.021547814831137657
1714858353152671200,2.147671142578125,9.836577415466309,0.013766659423708916,-0.016759412363171577
1714858353162620700,2.15762060546875,9.84615421295166,0.018555063754320145,-0.011971008032560349
1714858353172570000,2.167570068359375,9.84615421295166,0.028131870552897453,-0.0071826050989329815
1714858353182519600,2.17751953125,9.84615421295166,0.023343466222286224,0.016759412363171577
1714858353192469200,2.18746923828125,9.855731010437012,0.018555063754320145,0.021547814831137657
1714858353202418700,2.197418701171875,9.855731010437012,0.013766659423708916,0.021547814831137657
1714858353212368100,2.2073681640625,9.860519409179688,0.013766659423708916,0.002394201699644327
1714858353222317600,2.217317626953125,9.84615421295166,0.008978256024420261,-0.0071826050989329815
1714858353232267000,2.22726708984375,9.841365814208984,0.008978256024420261,-0.021547814831137657
1714858353242216400,2.237216552734375,9.841365814208984,0.023343466222286224,-0.016759412363171577
1714858353252166100,2.247166259765625,9.84615421295166,0.03292027488350868,-0.016759412363171577
1714858353262115600,2.257115478515625,9.860519409179688,0.03770867735147476,-0.016759412363171577
1714858353272065000,2.26706494140625,9.84615421295166,0.04249707981944084,-0.002394201699644327
1714858353282014500,2.277014404296875,9.850942611694336,0.05686229094862938,0.011971008032560349
1714858353291964000,2.2869638671875,9.850942611694336,0.05686229094862938,0.011971008032560349
1714858353301913300,2.296913330078125,9.84615421295166,0.0520738884806633,0.021547814831137657
1714858353311862800,2.30686279296875,9.850942611694336,0.03292027488350868,0.016759412363171577
1714858353321812500,2.3168125,9.841365814208984,0.013766659423708916,0.0071826050989329815
1714858353331762000,2.326761962890625,9.84615421295166,-0.005386953707784414,-0.0071826050989329815
1714858353341711400,2.33671142578125,9.850942611694336,-0.010175357572734356,-0.016759412363171577
1714858353351660800,2.346660888671875,9.84615421295166,-0.01975216343998909,-0.021547814831137657
1714858353361610200,2.3566103515625,9.84615421295166,-0.01496376097202301,-0.0071826050989329815
1714858353371559700,2.3665595703125,9.84615421295166,-0.0005985504249110818,-0.002394201699644327
1714858353381509400,2.37650927734375,9.84615421295166,0.018555063754320145,-0.002394201699644327
1714858353391458800,2.386458740234375,9.841365814208984,0.018555063754320145,0.002394201699644327
1714858353401408300,2.396408203125,9.84615421295166,0.04249707981944084,0.011971008032560349
1714858353411357700,2.406357666015625,9.841365814208984,0.04249707981944084,0.0071826050989329815
1714858353421307100,2.41630712890625,9.84615421295166,0.04728548228740692,0.002394201699644327
1714858353431256600,2.426256591796875,9.850942611694336,0.03292027488350868,-0.021547814831137657
1714858353441206000,2.4362060546875,9.855731010437012,0.023343466222286224,-0.031124621629714966
1714858353451155700,2.44615576171875,9.84615421295166,0.018555063754320145,-0.031124621629714966
1714858353461105200,2.456105224609375,9.855731010437012,0.023343466222286224,-0.021547814831137657
1714858353471054600,2.4660546875,9.850942611694336,0.028131870552897453,-0.031124621629714966
1714858353481004000,2.476004150390625,9.84615421295166,0.03770867735147476,-0.011971008032560349
1714858353490953500,2.485953369140625,9.860519409179688,0.03292027488350868,-0.0071826050989329815
1714858353500903200,2.495903076171875,9.850942611694336,0.028131870552897453,0.016759412363171577
1714858353510852600,2.5058525390625,9.841365814208984,0.028131870552897453,0.021547814831137657
1714858353520802000,2.515802001953125,9.855731010437012,0.018555063754320145,0.031124621629714966
1714858353530751700,2.525751708984375,9.855731010437012,0.013766659423708916,0.016759412363171577
1714858353540701200,2.535701171875,9.850942611694336,0.004189853090792894,0.002394201699644327
1714858353550650600,2.545650634765625,9.841365814208984,-0.005386953707784414,-0.011971008032560349
1714858353560600300,2.555600341796875,9.84615421295166,-0.010175357572734356,-0.011971008032560349
1714858353570549800,2.5655498046875,9.850942611694336,-0.0005985504249110818,-0.0071826050989329815
1714858353580499200,2.575499267578125,9.84615421295166,0.013766659423708916,0.002394201699644327
1714858353590449000,2.585448974609375,9.841365814208984,0.03770867735147476,0.016759412363171577
1714858353600398300,2.5953984375,9.84615421295166,0.06643909960985184,0.021547814831137657
1714858353610348000,2.60534814453125,9.84615421295166,0.08080431073904037,0.031124621629714966
1714858353620297500,2.61529736328125,9.84615421295166,0.08080431073904037,0.016759412363171577
1714858353630247000,2.625246826171875,9.841365814208984,0.05686229094862938,-0.002394201699644327
1714858353640196600,2.635196533203125,9.850942611694336,0.04249707981944084,-0.016759412363171577
1714858353650146000,2.64514599609375,9.850942611694336,0.018555063754320145,-0.035913024097681046
1714858353660095500,2.655095458984375,9.841365814208984,-0.0005985504249110818,-0.0454898327589035
1714858353670045200,2.665045166015625,9.850942611694336,-0.005386953707784414,-0.0454898327589035
1714858353679994600,2.67499462890625,9.841365814208984,0.004189853090792894,-0.035913024097681046
1714858353689944000,2.684944091796875,9.860519409179688,0.004189853090792894,-0.016759412363171577
1714858353699893800,2.694893798828125,9.855731010437012,0.013766659423708916,0.002394201699644327
1714858353709843200,2.70484326171875,9.860519409179688,0.023343466222286224,0.021547814831137657
1714858353719792600,2.714792724609375,9.860519409179688,0.023343466222286224,0.035913024097681046
1714858353729742300,2.724742431640625,9.860519409179688,0.023343466222286224,0.0454898327589035
1714858353739691800,2.73469189453125,9.860519409179688,0.03292027488350868,0.035913024097681046
1714858353749641200,2.74464111328125,9.841365814208984,0.018555063754320145,0.016759412363171577
1714858353759591000,2.7545908203125,9.850942611694336,0.008978256024420261,0.0071826050989329815
1714858353769540400,2.764540283203125,9.84615421295166,0.004189853090792894,-0.026336219161748886
1714858353779490000,2.774489990234375,9.865307807922363,0.004189853090792894,-0.026336219161748886
1714858353789439500,2.784439453125,9.850942611694336,0.008978256024420261,-0.031124621629714966
1714858353799389000,2.794388916015625,9.855731010437012,0.028131870552897453,-0.021547814831137657
1714858353809338600,2.804338623046875,9.850942611694336,0.03292027488350868,-0.002394201699644327
1714858353819288000,2.8142880859375,9.850942611694336,0.04249707981944084,0.002394201699644327
1714858353829237500,2.824237548828125,9.841365814208984,0.04728548228740692,0.011971008032560349
1714858353839187000,2.83418701171875,9.855731010437012,0.03292027488350868,0.0071826050989329815
1714858353849136400,2.844136474609375,9.84615421295166,0.028131870552897453,-0.0071826050989329815
1714858353859086000,2.854086181640625,9.860519409179688,0.013766659423708916,-0.031124621629714966
1714858353869035500,2.864035400390625,9.84615421295166,-0.0005985504249110818,-0.031124621629714966
1714858353878985000,2.87398486328125,9.855731010437012,-0.0005985504249110818,-0.031124621629714966
1714858353888934400,2.883934326171875,9.860519409179688,0.004189853090792894,-0.026336219161748886
1714858353898883800,2.8938837890625,9.850942611694336,0.018555063754320145,-0.002394201699644327
1714858353908833300,2.903833251953125,9.850942611694336,0.03292027488350868,0.011971008032560349
1714858353918783000,2.913782958984375,9.855731010437012,0.04249707981944084,0.026336219161748886
1714858353928732400,2.923732421875,9.84615421295166,0.04728548228740692,0.040701430290937424
1714858353938681900,2.933681884765625,9.855731010437012,0.04728548228740692,0.035913024097681046
1714858353948631300,2.94363134765625,9.860519409179688,0.04249707981944084,0.026336219161748886
1714858353958580700,2.953580810546875,9.84615421295166,0.03292027488350868,0.002394201699644327
1714858353968530200,2.9635302734375,9.850942611694336,0.018555063754320145,-0.016759412363171577
1714858353978479600,2.973479736328125,9.850942611694336,0.008978256024420261,-0.021547814831137657
1714858353988429300,2.98342919921875,9.84615421295166,0.004189853090792894,-0.016759412363171577
1714858353998378800,2.993378662109375,9.860519409179688,-0.0005985504249110818,-0.026336219161748886
1714858354008328200,3.003328125,9.855731010437012,-0.0005985504249110818,-0.021547814831137657
1714858354018277600,3.013277587890625,9.855731010437012,0.018555063754320145,-0.002394201699644327
1714858354028227000,3.02322705078125,9.841365814208984,0.028131870552897453,0.0071826050989329815
1714858354038176500,3.033176513671875,9.850942611694336,0.03292027488350868,0.002394201699644327
1714858354048126200,3.043126220703125,9.850942611694336,0.03292027488350868,0.002394201699644327
1714858354058075600,3.05307568359375,9.841365814208984,0.023343466222286224,-0.002394201699644327
1714858354068025000,3.063025146484375,9.850942611694336,0.013766659423708916,-0.0071826050989329815
1714858354077974500,3.072974609375,9.855731010437012,0.008978256024420261,-0.021547814831137657
1714858354087924000,3.082924072265625,9.860519409179688,-0.010175357572734356,-0.031124621629714966
1714858354097873400,3.092873291015625,9.850942611694336,-0.010175357572734356,-0.011971008032560349
1714858354107822800,3.10282275390625,9.84615421295166,-0.0005985504249110818,-0.002394201699644327
1714858354117772500,3.1127724609375,9.850942611694336,0.013766659423708916,0.011971008032560349
1714858354127722000,3.122721923828125,9.850942611694336,0.028131870552897453,0.021547814831137657
1714858354137671400,3.13267138671875,9.84615421295166,0.03770867735147476,0.016759412363171577
1714858354147620900,3.142620849609375,9.84615421295166,0.04728548228740692,0.011971008032560349
1714858354157570300,3.1525703125,9.850942611694336,0.05686229094862938,0.002394201699644327
1714858354167519700,3.162519775390625,9.84615421295166,0.0520738884806633,-0.002394201699644327
1714858354177469400,3.172469482421875,9.850942611694336,0.05686229094862938,-0.002394201699644327
1714858354187419000,3.1824189453125,9.850942611694336,0.04249707981944084,-0.016759412363171577
1714858354197368300,3.192368408203125,9.860519409179688,0.04249707981944084,-0.011971008032560349
1714858354207317800,3.20231787109375,9.855731010437012,0.03292027488350868,-0.011971008032560349
1714858354217267200,3.21226708984375,9.850942611694336,0.013766659423708916,-0.021547814831137657
1714858354227216600,3.222216552734375,9.84615421295166,0.008978256024420261,-0.016759412363171577
1714858354237166000,3.232166015625,9.850942611694336,-0.005386953707784414,-0.011971008032560349
1714858354247115800,3.24211572265625,9.850942611694336,-0.0005985504249110818,0.002394201699644327
1714858354257065200,3.252065185546875,9.850942611694336,0.004189853090792894,0.011971008032560349
1714858354267014700,3.2620146484375,9.850942611694336,-0.010175357572734356,0.011971008032560349
1714858354276964000,3.271964111328125,9.836577415466309,-0.0005985504249110818,0.011971008032560349
1714858354286913500,3.28191357421875,9.84615421295166,-0.0005985504249110818,0.0071826050989329815
1714858354296863000,3.291863037109375,9.855731010437012,0.008978256024420261,0.002394201699644327
1714858354306812400,3.3018125,9.860519409179688,0.023343466222286224,0.0071826050989329815
1714858354316762000,3.31176220703125,9.855731010437012,0.04249707981944084,0.011971008032560349
1714858354326711600,3.321711669921875,9.84615421295166,0.0520738884806633,0.0071826050989329815
1714858354336661000,3.331660888671875,9.84615421295166,0.06165069341659546,0.0071826050989329815
1714858354346610400,3.3416103515625,9.84615421295166,0.05686229094862938,0.0071826050989329815
1714858354356560000,3.351559814453125,9.850942611694336,0.06165069341659546,-0.011971008032560349
1714858354366509300,3.36150927734375,9.850942611694336,0.03770867735147476,-0.016759412363171577
1714858354376459000,3.371458984375,9.84615421295166,0.023343466222286224,-0.026336219161748886
1714858354386408400,3.381408447265625,9.850942611694336,0.023343466222286224,-0.026336219161748886
1714858354396358000,3.39135791015625,9.84615421295166,0.004189853090792894,-0.021547814831137657
1714858354406307300,3.401307373046875,9.850942611694336,-0.0005985504249110818,-0.011971008032560349
1714858354416256800,3.4112568359375,9.855731010437012,0.004189853090792894,-0.0071826050989329815
1714858354426206200,3.421206298828125,9.860519409179688,-0.0005985504249110818,0.0071826050989329815
1714858354436155600,3.43115576171875,9.855731010437012,0.004189853090792894,0.011971008032560349
1714858354446105300,3.441105224609375,9.860519409179688,0.013766659423708916,0.021547814831137657
1714858354456054800,3.4510546875,9.817423820495605,0.018555063754320145,0.016759412363171577
1714858354466004200,3.461004150390625,9.884461402893066,0.0520738884806633,0.07900865375995636
1714858354475953700,3.47095361328125,9.874884605407715,0.03770867735147476,0.05027823522686958
1714858354485903000,3.480903076171875,9.850942611694336,0.023343466222286224,0.016759412363171577
1714858354495852500,3.4908525390625,9.860519409179688,0.013766659423708916,-0.002394201699644327
1714858354505802200,3.50080224609375,9.860519409179688,0.018555063754320145,-0.011971008032560349
1714858354515751700,3.510751708984375,9.7791166305542,0.008978256024420261,-0.08858546614646912
1714858354525701000,3.520701171875,9.860519409179688,0.008978256024420261,-0.05985504388809204
1714858354535650600,3.530650634765625,9.946710586547852,0.05686229094862938,-0.002394201699644327
1714858354545600000,3.54060009765625,9.822212219238281,0.29149407148361206,0.18914192914962769
1714858354555549400,3.550549560546875,9.798270225524902,0.6554127335548401,0.026336219161748886
1714858354565499100,3.5604990234375,9.827000617980957,0.3298012912273407,0.06464344263076782
1714858354575448600,3.570448486328125,9.841365814208984,-0.4794389009475708,-0.18914192914962769
1714858354585398000,3.58039794921875,9.697713851928711,-1.0157400369644165,-0.21308395266532898
1714858354595347700,3.59034765625,9.692925453186035,-0.8672995567321777,-0.6105214357376099
1714858354605297200,3.600297119140625,8.763975143432617,-0.40282443165779114,0.0694318488240242
1714858354615246600,3.61024658203125,12.034455299377441,0.7224503755569458,0.8786720037460327
1714858354625196300,3.6201962890625,11.297040939331055,0.12868833541870117,0.12689268589019775
1714858354635145700,3.630145751953125,12.38879680633545,-0.292691171169281,-0.6536170840263367
1714858354645095400,3.640095458984375,12.345701217651367,-0.44592007994651794,-0.33279404044151306
1714858354655044900,3.650044921875,11.153388977050781,-0.761954665184021,0.5434837937355042
1714858354664994300,3.659994384765625,9.554061889648438,-0.8720879554748535,2.367865562438965
1714858354674944000,3.669944091796875,8.538920402526855,-1.1689690351486206,3.5697548389434814
1714858354684893400,3.6798935546875,6.53257942199707,-1.6238672733306885,5.475539207458496
1714858354694843000,3.6898427734375,6.422446250915527,-3.4865562915802,5.5760955810546875
1714858354704792600,3.69979248046875,6.867767810821533,-5.0715179443359375,5.1595048904418945
1714858354714742000,3.709741943359375,8.131906509399414,-4.520851135253906,4.431667327880859
1714858354724691500,3.71969140625,10.770316123962402,-3.9606082439422607,2.0039467811584473
1714858354734641200,3.72964111328125,13.968969345092773,-4.578312397003174,0.524330198764801
1714858354744590600,3.739590576171875,17.16283416748047,-4.6070427894592285,1.4532804489135742
1714858354754540000,3.7495400390625,19.322404861450195,-4.109048843383789,2.008735179901123
1714858354764489700,3.75948974609375,20.284873962402344,-4.669291973114014,0.8930372595787048
1714858354774439200,3.769439208984375,20.356700897216797,-4.5160627365112305,-0.15083470940589905
1714858354784388900,3.779388916015625,19.178752899169922,-4.262277603149414,-0.3663128614425659
1714858354794338300,3.78933837890625,17.83799934387207,-4.875193119049072,-0.2753331959247589
1714858354804287700,3.799287841796875,16.420631408691406,-5.717952251434326,0.3423708379268646
1714858354814237400,3.809237548828125,14.677653312683105,-6.02919864654541,0.8690952062606812
1714858354824187000,3.819186767578125,13.60983943939209,-5.828085422515869,0.5530605912208557
1714858354834136300,3.82913623046875,12.599486351013184,-5.095459938049316,0.07900865375995636
1714858354844086000,3.8390859375,12.838906288146973,-4.4490251541137695,-0.9265560507774353
1714858354854035500,3.849035400390625,13.494917869567871,-3.8313212394714355,-1.7405846118927002
1714858354863985000,3.85898486328125,13.590685844421387,-2.60548996925354,-2.229001760482788
1714858354873934600,3.8689345703125,13.26986312866211,-1.5616180896759033,-2.913743495941162
1714858354883884000,3.878884033203125,13.255497932434082,-2.318185806274414,-4.110844135284424
1714858354893833500,3.88883349609375,13.111845970153809,-2.8401217460632324,-4.891354084014893
1714858354903783200,3.898783203125,11.474211692810059,-1.4131776094436646,-4.264073371887207
1714858354913732600,3.908732666015625,9.606734275817871,-0.24480712413787842,-3.8331170082092285
1714858354923682300,3.918682373046875,8.232462882995605,-0.24480712413787842,-3.268085241317749
1714858354933631700,3.9286318359375,7.4998369216918945,-0.19213469326496124,-3.488351821899414
1714858354943581200,3.938581298828125,6.795941352844238,0.04249707981944084,-5.355829238891602
1714858354953531000,3.94853076171875,5.598840713500977,-0.5752069354057312,-6.806715488433838
1714858354963480300,3.958480224609375,3.8606503009796143,-2.279878616333008,-5.571307182312012
1714858354973429800,3.9684296875,1.9117701053619385,-1.896806240081787,-1.8555063009262085
1714858354983379500,3.97837939453125,-0.13766659796237946,0.33937808871269226,0.7445967197418213
1714858354993329000,3.988328857421875,-1.334767460823059,1.7998411655426025,1.8507179021835327
1714858355003278300,3.9982783203125,-0.9612720012664795,2.2834699153900146,2.540247917175293
1714858355013227800,4.008227783203125,0.8774749040603638,2.604292869567871,2.406172752380371
1714858355023177200,4.01817724609375,3.094505786895752,2.518101692199707,1.6974890232086182
1714858355033127000,4.028126953125,5.65151309967041,2.7910406589508057,0.6631938815116882
1714858355043076400,4.038076416015625,9.084798812866211,3.954622745513916,-0.8547300100326538
1714858355053025800,4.04802587890625,12.647370338439941,5.032013416290283,-3.047818660736084
1714858355062975200,4.057975341796875,15.7694091796875,4.409521102905273,-3.488351821899414
1714858355072924700,4.067924560546875,17.086219787597656,3.930680751800537,-1.5538369417190552
1714858355082874000,4.0778740234375,16.822858810424805,4.658517837524414,1.6831238269805908
1714858355092823800,4.08782373046875,15.343241691589355,5.999270915985107,5.2265424728393555
1714858355102773200,4.097773193359375,12.714407920837402,7.785345554351807,8.248024940490723
1714858355112722700,4.10772265625,10.056844711303711,8.747814178466797,10.311826705932617
1714858355122672000,4.117672119140625,8.47667121887207,7.67042350769043,11.02051067352295
1714858355132624400,4.127624267578125,8.706514358520508,4.9170918464660645,7.7213006019592285
1714858355142573800,4.13757373046875,4.234145641326904,2.652176856994629,-11.001357078552246
1714858355152523300,4.147523193359375,0.8535329103469849,3.1022868156433105,-10.230423927307129
1714858355162472700,4.15747265625,2.8790276050567627,4.998494625091553,-10.105925559997559
1714858355172422100,4.167422119140625,7.226897716522217,5.8651957511901855,-17.949329376220703
1714858355182371800,4.177371826171875,10.348937034606934,6.324882507324219,-17.18797492980957
1714858355192321300,4.1873212890625,12.838906288146973,6.86597204208374,-13.141773223876953
1714858355202270700,4.197270751953125,41.17189025878906,9.739013671875,0.040701430290937424
1714858355212220200,4.20722021484375,17.459716796875,9.178771018981934,6.303933143615723
1714858355222169600,4.217169677734375,12.431892395019531,9.762955665588379,12.811373710632324
1714858355232119000,4.227119140625,8.888473510742188,9.394248962402344,9.531316757202148
1714858355242068500,4.237068359375,6.206967830657959,8.42699146270752,4.594472885131836
1714858355252018200,4.24701806640625,4.617218017578125,6.971316814422607,2.3774423599243164
1714858355261967600,4.256967529296875,1.5191209316253662,5.922656536102295,1.6687586307525635
1714858355271917000,4.2669169921875,-0.5829881429672241,5.304952621459961,1.3766659498214722
1714858355281866500,4.276866455078125,2.0602104663848877,5.218760967254639,1.5682021379470825
1714858355291816000,4.28681591796875,9.127894401550293,5.434239387512207,3.799597978591919
1714858355301765400,4.296765380859375,7.681796073913574,5.429450988769531,3.8091750144958496
1714858355311715000,4.306715087890625,4.708197593688965,4.323329925537109,6.045359134674072
1714858355321664500,4.31666455078125,4.286818027496338,2.321777105331421,8.990227699279785
1714858355331614000,4.326614013671875,3.822343111038208,0.9522937536239624,9.502586364746094
1714858355341563400,4.3365634765625,2.5103204250335693,0.6362590789794922,8.755595207214355
1714858355351512800,4.346512939453125,1.7729063034057617,0.19572599232196808,7.702147006988525
1714858355361462300,4.356462158203125,0.7817068696022034,-0.053270988166332245,6.5050458908081055
1714858355371411700,4.36641162109375,0.4129997789859772,0.23403321206569672,6.600813865661621
1714858355381361400,4.376361328125,-0.07541735470294952,-0.7236474752426147,6.907271862030029
1714858355391310800,4.386310791015625,-0.4058171808719635,-1.2072762250900269,6.174646377563477
1714858355401260300,4.39626025390625,0.6572083830833435,-1.202487826347351,3.9863457679748535
1714858355411209700,4.406209716796875,2.1272482872009277,-1.0636241436004639,0.730231523513794
1714858355421159200,4.4161591796875,4.784811973571777,-1.5328876972198486,-3.56017804145813
1714858355431108600,4.426108642578125,8.021772384643555,-2.141014814376831,-7.687781810760498
1714858355441058300,4.436058349609375,10.430339813232422,-1.8058266639709473,-8.31985092163086
1714858355451007700,4.4460078125,11.704054832458496,-1.303044319152832,-6.754043102264404
1714858355460957200,4.455957275390625,17.430986404418945,-0.7523778676986694,-3.737348794937134
1714858355470906600,4.46590673828125,16.458940505981445,-0.7284358739852905,-0.6823474764823914
1714858355480856000,4.47585595703125,16.956933975219727,-0.8337807655334473,3.359065055847168
1714858355490805500,4.485805419921875,18.73822021484375,-0.9103952050209045,5.403713226318359
1714858355500755000,4.4957548828125,16.894683837890625,-1.1162965297698975,6.739677906036377
1714858355510704600,4.50570458984375,14.270639419555664,-1.9638439416885376,7.094019412994385
1714858355520654000,4.515654052734375,10.607510566711426,-3.132214307785034,6.552929878234863
1714858355530603500,4.525603515625,6.135141849517822,-3.223194122314453,7.319074630737305
1714858355540553000,4.535552978515625,2.539050817489624,-2.2703018188476562,6.897695064544678
1714858355550502400,4.54550244140625,0.8343793153762817,-1.2647370100021362,7.395689010620117
1714858355560451800,4.555451904296875,-0.0802057534456253,0.15263035893440247,7.247248649597168
1714858355570401500,4.565401611328125,1.4760253429412842,2.1254525184631348,5.250484466552734
1714858355580351000,4.57535107421875,2.740163803100586,3.3273417949676514,2.9233202934265137
1714858355590300400,4.585300537109375,3.070563793182373,3.245939016342163,1.1755530834197998
1714858355600249900,4.595249755859375,3.6116533279418945,2.230797529220581,0.3471592366695404
1714858355610199300,4.60519921875,3.468001127243042,1.2012907266616821,-2.894589900970459
1714858355620148700,4.615148681640625,1.6053122282028198,1.5269020795822144,-4.173093795776367
1714858355630098200,4.62509814453125,-0.6404489278793335,2.719214677810669,-1.6208745241165161
1714858355640047900,4.6350478515625,0.7769184708595276,3.336918592453003,-6.141127586364746
1714858355649997300,4.644997314453125,3.7648820877075195,4.318541526794434,-9.914389610290527
1714858355659946800,4.65494677734375,4.305971622467041,5.257068157196045,-15.928624153137207
1714858355669896200,4.664896240234375,0.36990416049957275,8.02955436706543,-22.641965866088867
1714858355679845600,4.674845703125,-3.848679304122925,11.328763961791992,-24.05933380126953
1714858355689795300,4.68479541015625,-3.465606927871704,15.805920600891113,-22.086511611938477
1714858355699744800,4.694744873046875,-2.49834942817688,17.261594772338867,-21.49753761291504
1714858355709694200,4.704694091796875,-5.639542102813721,17.410036087036133,-25.309106826782227
1714858355719644000,4.714643798828125,-7.966706275939941,18.506580352783203,-18.792089462280273
1714858355729593300,4.72459326171875,-7.904457092285156,19.253572463989258,-6.892906665802002
1714858355739543000,4.73454296875,-6.625953197479248,20.4746150970459,-1.3192051649093628
1714858355749492500,4.744492431640625,-3.9923312664031982,21.609466552734375,-0.15083470940589905
1714858355759442000,4.75444189453125,-3.2357635498046875,19.38764762878418,-1.3718775510787964
1714858355769391600,4.7643916015625,-5.242104530334473,16.35179901123047,-2.229001760482788
1714858355779341000,4.774341064453125,-8.186972618103027,14.062942504882812,-3.3686418533325195
1714858355789290500,4.78429052734375,-12.070367813110352,12.032659530639648,-5.714959621429443
1714858355799240200,4.794240234375,-15.31690502166748,10.442909240722656,-6.308721542358398
1714858355809189600,4.804189697265625,-18.415002822875977,8.364742279052734,-5.590460777282715
1714858355819139000,4.81413916015625,-19.35352897644043,5.4677581787109375,-5.384559631347656
1714858355829088800,4.8240888671875,-18.98482322692871,3.442263603210449,-5.355829238891602
1714858355839038200,4.8340380859375,-17.64406967163086,1.5029600858688354,-3.1483752727508545
1714858355848987600,4.843987548828125,-16.719907760620117,1.4407109022140503,0.7493851184844971
1714858355858937300,4.853937255859375,-14.282609939575195,-1.0301052331924438,5.657498836517334
1714858355868886800,4.86388671875,-11.998541831970215,-3.223194122314453,11.21204662322998
1714858355878836500,4.87383642578125,-10.499771118164062,-4.061164855957031,15.176844596862793
1714858355888786000,4.883785888671875,-7.564480304718018,-3.66851544380188,19.165584564208984
1714858355898735400,4.8937353515625,-5.634753704071045,-2.4905683994293213,23.08249855041504
1714858355908685000,4.90368505859375,-5.4480061531066895,-0.5608417391777039,24.23650360107422
1714858355918634500,4.913634521484375,-3.714603900909424,-2.0644004344940186,22.330718994140625
1714858355928584000,4.923583984375,-3.044227361679077,-5.521627902984619,16.16804313659668
1714858355938533600,4.93353369140625,-3.6332011222839355,-6.5511345863342285,9.162610054016113
1714858355948483000,4.943483154296875,-3.954024076461792,-7.776965618133545,2.52109432220459
1714858355958432500,4.9534326171875,-4.073734283447266,-9.673172950744629,-3.0861260890960693
1714858355968382200,4.96338232421875,-3.6762967109680176,-11.492766380310059,-5.983109951019287
1714858355978331600,4.97333154296875,-1.9955670833587646,-13.341090202331543,-6.217741966247559
1714858355988281000,4.983281005859375,-0.39145198464393616,-12.838308334350586,-5.959167957305908
1714858355998230800,4.993230712890625,1.6101006269454956,-11.023503303527832,-7.4100542068481445
1714858356008180200,5.00318017578125,5.129577159881592,-9.539097785949707,-8.276755332946777
1714858356018129700,5.013129638671875,9.716867446899414,-7.561487674713135,-7.280767440795898
1714858356028079000,5.0230791015625,14.682441711425781,-6.062717437744141,-6.064512729644775
1714858356038028500,5.033028564453125,19.41338539123535,-4.9805378913879395,-6.1267619132995605
1714858356047978200,5.042978271484375,22.08531379699707,-4.860827922821045,-7.754819393157959
1714858356057927700,5.052927734375,22.81315040588379,-5.856815814971924,-10.14902114868164
1714858356067877000,5.062877197265625,23.042993545532227,-6.373963356018066,-11.135432243347168
1714858356077826600,5.07282666015625,24.532188415527344,-6.3069257736206055,-9.502586364746094
1714858356087776000,5.08277587890625,28.406005859375,-7.460930824279785,-7.184999465942383
1714858356097725400,5.092725341796875,32.31813049316406,-8.51916790008545,-4.0294413566589355
1714858356107675100,5.102675048828125,33.27102279663086,-9.055469512939453,-1.4245500564575195
1714858356117624600,5.11262451171875,30.11067771911621,-9.582193374633789,0.12210428714752197
1714858356127574000,5.122573974609375,25.274391174316406,-8.8878755569458,1.941697597503662
1714858356137523500,5.1325234375,21.031864166259766,-7.029974937438965,2.8179752826690674
1714858356147473000,5.142472900390625,18.398242950439453,-5.435436248779297,1.9991583824157715
1714858356157422300,5.15242236328125,18.07741928100586,-5.459378242492676,0.7350199222564697
1714858356167371800,5.162371826171875,18.50358772277832,-7.9397711753845215,0.6775590777397156
1714858356177321500,5.172321533203125,18.273744583129883,-10.501566886901855,1.625662922859192
1714858356187271000,5.18227099609375,16.056713104248047,-11.425728797912598,3.7229835987091064
1714858356197220400,5.192220458984375,10.674548149108887,-8.725069999694824,4.8722004890441895
1714858356207169800,5.202169677734375,5.584475517272949,-4.348468780517578,4.2544965744018555
1714858356217119200,5.212119140625,2.409764051437378,-0.5895721912384033,3.9001545906066895
1714858356227068700,5.222068603515625,-0.013168109580874443,2.2212207317352295,2.248155355453491
1714858356237018000,5.23201806640625,-1.8375498056411743,3.8540661334991455,-0.6919242739677429
1714858356246967800,5.2419677734375,-3.556586742401123,4.97934103012085,-4.134786128997803
1714858356256917200,5.251917236328125,-4.657919406890869,7.416638374328613,-10.010157585144043
1714858356266866700,5.26186669921875,-4.710591793060303,10.337564468383789,-14.980520248413086
1714858356276816100,5.271816162109375,-5.055356979370117,11.046248435974121,-14.721946716308594
1714858356286765600,5.281765625,-5.692214488983154,10.22264289855957,-12.006921768188477
1714858356296715000,5.291715087890625,-6.214150428771973,9.877877235412598,-10.536881446838379
1714858356306664700,5.301664794921875,-8.234856605529785,9.877877235412598,-11.87763500213623
1714858356316614100,5.3116142578125,-10.02571964263916,9.49001693725586,-15.377957344055176
1714858356326563600,5.3215634765625,-9.896432876586914,8.417414665222168,-18.437747955322266
1714858356336513000,5.331512939453125,-9.791088104248047,7.61296272277832,-20.91335105895996
1714858356346462500,5.34146240234375,-10.222043991088867,6.612186431884766,-21.100099563598633
1714858356356412000,5.351411865234375,-10.638635635375977,5.065532207489014,-15.516820907592773
1714858356366361300,5.361361328125,-12.017695426940918,3.3177649974823,-7.022193431854248
1714858356376311000,5.37131103515625,-13.454216003417969,2.4845829010009766,-0.8212111592292786
1714858356386260500,5.381260498046875,-15.647305488586426,2.6378116607666016,5.0685248374938965
1714858356396210000,5.3912099609375,-18.166006088256836,4.026448726654053,11.355698585510254
1714858356406159400,5.401159423828125,-19.731813430786133,5.89392614364624,14.72673511505127
1714858356416108800,5.41110888671875,-18.046295166015625,6.69837760925293,13.745112419128418
1714858356426058200,5.421058349609375,-17.624916076660156,6.473322868347168,12.591106414794922
1714858356436008000,5.431008056640625,-21.78125,6.8611836433410645,12.887988090515137
1714858356445957400,5.440957275390625,-23.821109771728516,7.043142795562744,13.67807388305664
1714858356455906800,5.45090673828125,-22.32712745666504,7.2298903465271,14.635754585266113
1714858356465856300,5.460856201171875,-16.54752540588379,7.6081743240356445,14.171279907226562
1714858356475805700,5.4708056640625,-10.02571964263916,6.540360450744629,12.773066520690918
1714858356485755100,5.480755126953125,-5.716156482696533,4.510077476501465,10.292673110961914
1714858356495704600,5.49070458984375,-2.78086519241333,2.5947160720825195,6.184223175048828
1714858356505654300,5.500654296875,-0.7218518257141113,0.7655459642410278,0.9552865028381348
1714858356515603700,5.510603759765625,-0.12330138683319092,-1.5328876972198486,-3.885789394378662
1714858356525553200,5.52055322265625,-1.3251906633377075,-3.821744441986084,-6.596025466918945
1714858356535502600,5.530502685546875,-3.3028011322021484,-5.205593109130859,-5.360617637634277
1714858356545452000,5.5404521484375,-5.160701751708984,-5.971737384796143,-1.6927006244659424
1714858356555401500,5.5504013671875,-7.095216751098633,-5.98610258102417,2.875436305999756
1714858356565351200,5.56035107421875,-8.167819023132324,-4.769848346710205,7.070077419281006
1714858356575300600,5.570300537109375,-8.378508567810059,-3.7403416633605957,9.63187313079834
1714858356585250000,5.58025,-7.066486358642578,-3.845686435699463,10.216058731079102
1714858356595199500,5.590199462890625,-4.677073001861572,-5.018845081329346,10.254365921020508
1714858356605149000,5.60014892578125,-2.9293057918548584,-5.612607479095459,10.144232749938965
1714858356615098400,5.610098388671875,-0.9181763529777527,-5.464166641235352,9.057265281677246
1714858356625047800,5.6200478515625,2.141613483428955,-3.7259764671325684,7.343016624450684
1714858356634997500,5.62999755859375,5.412093162536621,-1.5616180896759033,7.2137298583984375
1714858356644947000,5.639947021484375,8.826224327087402,0.04728548228740692,8.497021675109863
1714858356654896400,5.649896484375,12.58033275604248,-0.03890577703714371,9.99100399017334
1714858356664845800,5.659845703125,15.778985977172852,-1.8920178413391113,10.833763122558594
1714858356674795300,5.669795166015625,17.454927444458008,-3.864840030670166,10.326191902160645
1714858356684744700,5.67974462890625,17.82842254638672,-4.238335609436035,8.860940933227539
1714858356694694400,5.6896943359375,15.132552146911621,-2.500145196914673,7.151480674743652
1714858356704643800,5.699643798828125,11.63222885131836,-0.6039373874664307,5.652710437774658
1714858356714593300,5.70959326171875,10.664971351623535,0.9331400990486145,6.251260757446289
1714858356724542700,5.719542724609375,12.144588470458984,1.7950527667999268,9.038111686706543
1714858356734492200,5.7294921875,14.3424654006958,0.47824180126190186,10.986991882324219
1714858356744441600,5.739441650390625,13.619416236877441,-1.2934675216674805,12.466608047485352
1714858356754391000,5.74939111328125,11.704054832458496,-2.8544869422912598,14.429853439331055
1714858356764340700,5.7593408203125,9.1662015914917,-3.888782024383545,15.387534141540527
1714858356774290200,5.769290283203125,5.129577159881592,-4.496909141540527,14.903905868530273
1714858356784239600,5.779239501953125,0.9923965930938721,-4.784213542938232,14.544775009155273
1714858356794189000,5.78918896484375,-1.8854337930679321,-5.143343925476074,14.070723533630371
1714858356804138500,5.799138427734375,-3.772064685821533,-5.737105846405029,12.36605167388916
1714858356814088000,5.809087890625,-4.926070213317871,-6.5080389976501465,8.822632789611816
1714858356824037600,5.81903759765625,-5.5772929191589355,-7.427412033081055,3.4356794357299805
1714858356833987000,5.828987060546875,-6.156689643859863,-8.169614791870117,-3.2824504375457764
1714858356843936500,5.8389365234375,-5.538985729217529,-6.919841289520264,-10.618284225463867
1714858356853886000,5.848885986328125,-5.467159748077393,-3.816956043243408,-14.970943450927734
1714858356863835400,5.85883544921875,-6.697779178619385,-1.1785458326339722,-15.727511405944824
1714858356873784800,5.868784912109375,-7.1239471435546875,0.4159925580024719,-15.904682159423828
1714858356883734300,5.878734375,-6.736086368560791,0.679354727268219,-18.29888343811035
1714858356893684000,5.88868408203125,-6.750451564788818,0.5883750915527344,-21.291635513305664
1714858356903633400,5.89863330078125,-8.201337814331055,0.32022446393966675,-23.676259994506836
1714858356913582800,5.908582763671875,-10.260351181030273,-0.22086510062217712,-26.24763298034668
1714858356923532300,5.9185322265625,-10.74876880645752,0.6697779297828674,-28.469451904296875
1714858356933481700,5.928481689453125,-10.064026832580566,1.3066356182098389,-28.833370208740234
1714858356943431200,5.93843115234375,-8.900444984436035,1.6178817749023438,-27.794286727905273
1714858356953380900,5.948380859375,-8.282740592956543,2.1589713096618652,-26.013002395629883
1714858356963330300,5.958330322265625,-8.704120635986328,1.732803463935852,-24.60521125793457
1714858356973279700,5.96827978515625,-9.403226852416992,2.297835111618042,-21.607669830322266
1714858356983229200,5.978229248046875,-9.173383712768555,3.514089584350586,-15.397110939025879
1714858356993178600,5.9881787109375,-6.779181957244873,4.337695121765137,-6.682217121124268
1714858357003128000,5.998128173828125,-3.025073766708374,5.405508995056152,3.023876667022705
1714858357013077500,6.008077392578125,1.6962919235229492,7.378331184387207,11.274295806884766
1714858357023027200,6.018027099609375,7.47110652923584,8.58500862121582,15.990873336791992
1714858357032976600,6.0279765625,14.155717849731445,8.24503231048584,17.154455184936523
1714858357042926000,6.037926025390625,18.26895523071289,8.6089506149292,16.733076095581055
1714858357052875500,6.04787548828125,15.994464874267578,10.40460205078125,17.575834274291992
1714858357062825000,6.057824951171875,8.735244750976562,11.927314758300781,20.60210609436035
1714858357072774400,6.0677744140625,2.7497406005859375,12.53065299987793,22.646753311157227
1714858357082724000,6.07772412109375,-0.1711854189634323,13.043012619018555,23.15911293029785
1714858357092673500,6.087673583984375,-1.013944387435913,12.626420974731445,21.63161277770996
1714858357102623000,6.097623046875,-1.3443442583084106,9.992799758911133,18.883068084716797
1714858357112572400,6.107572509765625,-0.7601590156555176,8.197148323059082,15.239093780517578
1714858357122521900,6.11752197265625,0.8104372620582581,7.61296272277832,12.121843338012695
1714858357132471300,6.12747119140625,2.4145524501800537,7.512406349182129,10.532093048095703
1714858357142420700,6.137420654296875,3.377021551132202,6.688800811767578,10.134655952453613
1714858357152370400,6.147370361328125,4.32991361618042,5.175665378570557,9.263166427612305
1714858357162320000,6.15731982421875,4.90452241897583,4.7590742111206055,7.137115478515625
1714858357172269300,6.167269287109375,6.3266777992248535,5.055955410003662,4.853046894073486
1714858357182218800,6.17721875,8.553285598754883,4.6058454513549805,3.24414324760437
1714858357192168200,6.187168212890625,10.96664047241211,3.451840400695801,2.027888774871826
1714858357202117600,6.19711767578125,13.006501197814941,1.809417963027954,1.0845733880996704
1714858357212067000,6.207067138671875,13.040019989013672,0.6889315247535706,1.0319008827209473
1714858357222016800,6.217016845703125,10.722432136535645,0.166995570063591,1.1994950771331787
1714858357231966200,6.22696630859375,6.968324184417725,0.6889315247535706,0.7829039692878723
1714858357241915600,6.23691552734375,3.4536359310150146,1.3976151943206787,0.08858546614646912
1714858357251865000,6.246864990234375,1.2078747749328613,1.7375918626785278,-0.05985504388809204
1714858357261814500,6.256814453125,0.6763619780540466,1.2204443216323853,-0.15083470940589905
1714858357271764000,6.266763916015625,1.456871747970581,0.3058592677116394,-0.4812345504760742
1714858357281713700,6.276713623046875,3.889380693435669,-0.3932476341724396,-0.8451532125473022
1714858357291663000,6.2866630859375,6.618770599365234,-1.3078327178955078,-1.036689281463623
1714858357301612500,6.296612548828125,8.8070707321167,-2.5049335956573486,-1.7405846118927002
1714858357311562000,6.30656201171875,9.726444244384766,-2.744353771209717,-2.808398485183716
1714858357321511400,6.316511474609375,10.679336547851562,-2.3086090087890625,-4.4077253341674805
1714858357331460900,6.3264609375,12.824541091918945,-1.997362732887268,-5.676652431488037
1714858357341410300,6.336410400390625,14.907496452331543,-1.8058266639709473,-5.427655220031738
1714858357351360000,6.346360107421875,16.4445743560791,-2.801814556121826,-4.345476150512695
1714858357361309400,6.356309326171875,16.621746063232422,-3.4290952682495117,-2.9712042808532715
1714858357371259000,6.3662587890625,15.529989242553711,-3.271078109741211,-2.4205379486083984
1714858357381208300,6.376208251953125,12.920309066772461,-2.5911247730255127,-2.1045033931732178
1714858357391157800,6.38615771484375,9.659406661987305,-2.4426841735839844,-2.0470423698425293
1714858357401107200,6.396107177734375,7.044938564300537,-2.5097219944000244,-2.832340717315674
1714858357411057000,6.406056884765625,6.159083843231201,-1.7723077535629272,-4.795586109161377
1714858357421006300,6.41600634765625,7.988254070281982,-0.8672995567321777,-5.882553577423096
1714858357430955800,6.425955810546875,10.890026092529297,-1.1402385234832764,-4.441244125366211
1714858357440905200,6.4359052734375,14.21796703338623,-1.6047136783599854,-2.2242133617401123
1714858357450854700,6.445854736328125,15.903484344482422,-1.66696298122406,0.3423708379268646
1714858357460804000,6.45580419921875,15.798139572143555,-1.8680758476257324,2.2146365642547607
1714858357470753500,6.46575341796875,14.859612464904785,-2.0596120357513428,2.5785553455352783
1714858357480703200,6.475703125,12.781445503234863,-1.2743138074874878,1.9129672050476074
1714858357490652700,6.485652587890625,10.650606155395508,-0.9103952050209045,0.8355764150619507
1714858357500602000,6.49560205078125,8.845377922058105,-1.0396820306777954,0.4381389021873474
1714858357510551600,6.505551513671875,7.542932510375977,-0.7763199210166931,0.7541735172271729
1714858357520501000,6.5155009765625,7.12155294418335,-0.5464765429496765,1.0797849893569946
1714858357530450400,6.525450439453125,7.557297706604004,-0.23523031175136566,1.4724340438842773
1714858357540400000,6.535400146484375,8.256404876708984,-0.30705636739730835,1.9321208000183105
1714858357550349600,6.545349609375,9.103952407836914,-0.48901569843292236,2.2194249629974365
1714858357560299000,6.555299072265625,9.616311073303223,-0.42676645517349243,2.300827741622925
1714858357570248400,6.56524853515625,9.238027572631836,-0.19213469326496124,2.209848165512085
1714858357580198000,6.575197998046875,23.095666885375977,-0.21128830313682556,3.2632968425750732
1714858357590147300,6.585147216796875,13.250709533691406,-1.6717513799667358,0.24181437492370605
1714858357600096800,6.5950966796875,7.183802127838135,-0.383670836687088,-2.736572504043579
1714858357610046500,6.60504638671875,8.850166320800781,0.1430535465478897,-2.4636335372924805
1714858357619996000,6.614995849609375,12.403162002563477,-1.0971429347991943,0.28969839215278625
1714858357629945300,6.6249453125,9.616311073303223,-0.7332242727279663,1.4389152526855469
1714858357639894800,6.634894775390625,9.247604370117188,-0.2974795699119568,1.745373010635376
1714858357649844200,6.64484423828125,9.927556991577148,-0.2687491476535797,0.5674257874488831
1714858357659793700,6.654793701171875,9.913191795349121,0.15741875767707825,-0.5482721924781799
1714858357669743400,6.664743408203125,9.35773754119873,0.7799112200737,-1.0031704902648926
1714858357679692800,6.67469287109375,9.060855865478516,0.8038532137870789,-0.5817909836769104
1714858357689642200,6.684642333984375,9.712079048156738,0.5452794432640076,0.17477671802043915
1714858357699591700,6.694591796875,11.019312858581543,0.48303020000457764,0.9265560507774353
1714858357709541000,6.704541015625,9.87967300415039,0.823006808757782,0.2992752194404602
1714858357719490600,6.714490478515625,10.310629844665527,0.9522937536239624,-0.3902548849582672
1714858357729440000,6.72443994140625,9.850942611694336,0.3968389332294464,-0.2561795711517334
1714858357739389700,6.7343896484375,9.917980194091797,-0.5752069354057312,0.38546648621559143
1714858357749339100,6.744339111328125,10.195708274841309,-1.1593921184539795,1.094150185585022
1714858357759288600,6.75428857421875,10.870872497558594,-1.6717513799667358,1.4293384552001953
1714858357769238300,6.76423828125,11.435904502868652,-2.3564929962158203,0.8786720037460327
1714858357779187700,6.774187744140625,10.42076301574707,-1.590348482131958,2.1092917919158936
1714858357789137200,6.78413720703125,5.598840713500977,-0.1107318252325058,1.2330138683319092
1714858357799086800,6.7940869140625,6.944382190704346,0.32022446393966675,1.3239935636520386
1714858357809036300,6.804036376953125,9.822212219238281,-0.42197805643081665,0.9744400978088379
1714858357818985700,6.81398583984375,11.900379180908203,-1.303044319152832,-1.9512743949890137
1714858357828935400,6.823935302734375,10.813411712646484,-0.6613982319831848,0.21787235140800476
1714858357838884900,6.833884765625,7.629123687744141,-0.3884592354297638,2.5498247146606445
1714858357848834600,6.84383447265625,13.470975875854492,-0.19213469326496124,1.0031704902648926
1714858357858784000,6.853783935546875,8.419210433959961,-0.1825578808784485,1.0654197931289673
1714858357868733400,6.8637333984375,9.793481826782227,0.06643909960985184,-0.3998316824436188
1714858357878683100,6.87368310546875,10.779892921447754,0.5261258482933044,-0.33758243918418884
1714858357888632600,6.883632568359375,9.02254867553711,0.6506243348121643,-1.0223240852355957
1714858357898582000,6.89358203125,10.123882293701172,0.5644330382347107,-0.9983820915222168
1714858357908531700,6.90353173828125,9.712079048156738,0.45908817648887634,-1.6879122257232666
1714858357918481200,6.913481201171875,9.841365814208984,0.12389993667602539,-0.05027823522686958
1714858357928430600,6.9234306640625,9.855731010437012,0.08080431073904037,0.021547814831137657
1714858357938380300,6.93338037109375,9.822212219238281,0.04728548228740692,0.021547814831137657
1714858357948329700,6.943329833984375,9.84615421295166,0.008978256024420261,0.0071826050989329815
1714858357958279200,6.953279052734375,9.836577415466309,-0.01975216343998909,-0.0071826050989329815
1714858357968228900,6.963228759765625,9.841365814208984,-0.0293289702385664,-0.011971008032560349
1714858357978178300,6.97317822265625,9.850942611694336,-0.03411737456917763,-0.002394201699644327
1714858357988128000,6.9831279296875,9.84615421295166,-0.048482585698366165,-0.011971008032560349
1714858357998077400,6.993077392578125,9.84615421295166,-0.04369417950510979,-0.0071826050989329815
1714858358008027000,7.00302685546875,9.841365814208984,-0.03890577703714371,0.002394201699644327
1714858358017976600,7.0129765625,9.841365814208984,-0.03890577703714371,-0.011971008032560349
1714858358027926000,7.022926025390625,9.84615421295166,-0.01975216343998909,-0.002394201699644327
1714858358037875500,7.03287548828125,9.841365814208984,0.004189853090792894,-0.0071826050989329815
1714858358047825200,7.0428251953125,9.855731010437012,0.013766659423708916,0.002394201699644327
1714858358057774600,7.052774658203125,9.855731010437012,0.028131870552897453,0.0071826050989329815
1714858358067724000,7.06272412109375,9.850942611694336,0.04728548228740692,0.026336219161748886
1714858358077673500,7.072673583984375,9.84615421295166,0.06165069341659546,0.031124621629714966
1714858358087623000,7.082622802734375,9.841365814208984,0.07122749835252762,0.031124621629714966
1714858358097572400,7.092572265625,9.850942611694336,0.06165069341659546,0.021547814831137657
1714858358107522000,7.10252197265625,9.850942611694336,0.05686229094862938,0.011971008032560349
1714858358117471500,7.112471435546875,9.841365814208984,0.0520738884806633,-0.002394201699644327
1714858358127421000,7.1224208984375,9.850942611694336,0.023343466222286224,-0.011971008032560349
1714858358137370400,7.132370361328125,9.84615421295166,-0.0005985504249110818,-0.021547814831137657
1714858358147319800,7.14231982421875,9.855731010437012,-0.005386953707784414,-0.016759412363171577
1714858358157269200,7.152269287109375,9.850942611694336,-0.0293289702385664,-0.021547814831137657
1714858358167218700,7.16221875,9.855731010437012,-0.03411737456917763,-0.0071826050989329815
1714858358177168400,7.17216845703125,9.84615421295166,-0.0293289702385664,0.011971008032560349
1714858358187117800,7.182117919921875,9.850942611694336,-0.01496376097202301,0.031124621629714966
1714858358197067300,7.1920673828125,9.860519409179688,-0.0005985504249110818,0.040701430290937424
1714858358207016700,7.2020166015625,9.850942611694336,0.008978256024420261,0.05985504388809204
1714858358216966100,7.211966064453125,9.850942611694336,0.023343466222286224,0.06464344263076782
1714858358226915600,7.22191552734375,9.855731010437012,0.03770867735147476,0.05027823522686958
1714858358236865300,7.231865234375,9.841365814208984,0.03292027488350868,0.035913024097681046
1714858358246814700,7.241814697265625,9.84615421295166,0.03770867735147476,0.021547814831137657
1714858358256764200,7.25176416015625,9.855731010437012,0.03292027488350868,-0.011971008032560349
1714858358266713600,7.261713623046875,9.850942611694336,0.028131870552897453,-0.026336219161748886
1714858358276663000,7.2716630859375,9.841365814208984,0.028131870552897453,-0.031124621629714966
1714858358286612500,7.281612548828125,9.84615421295166,0.018555063754320145,-0.026336219161748886
1714858358296562000,7.29156201171875,9.84615421295166,0.018555063754320145,-0.011971008032560349
1714858358306511600,7.30151171875,9.855731010437012,0.008978256024420261,-0.0071826050989329815
1714858358316461000,7.3114609375,9.841365814208984,0.013766659423708916,-0.002394201699644327
1714858358326410500,7.321410400390625,9.855731010437012,0.004189853090792894,-0.002394201699644327
1714858358336360000,7.33135986328125,9.841365814208984,-0.005386953707784414,-0.0071826050989329815
1714858358346309400,7.341309326171875,9.860519409179688,-0.01975216343998909,0.002394201699644327
1714858358356258800,7.3512587890625,9.855731010437012,-0.02454056777060032,0.0071826050989329815
1714858358366208500,7.36120849609375,9.855731010437012,-0.01975216343998909,-0.002394201699644327
1714858358376158000,7.371157958984375,9.860519409179688,-0.0293289702385664,-0.0071826050989329815
1714858358386107400,7.381107421875,9.84615421295166,-0.01496376097202301,0.0071826050989329815
1714858358396056800,7.391056884765625,9.855731010437012,0.008978256024420261,0.016759412363171577
1714858358406006300,7.40100634765625,9.84615421295166,0.018555063754320145,0.040701430290937424
1714858358415955700,7.410955810546875,9.855731010437012,0.028131870552897453,0.05027823522686958
1714858358425905200,7.4209052734375,9.84615421295166,0.04249707981944084,0.05985504388809204
1714858358435854800,7.430854736328125,9.850942611694336,0.04728548228740692,0.05985504388809204
1714858358445804300,7.44080419921875,9.850942611694336,0.05686229094862938,0.05985504388809204
1714858358455753700,7.450753662109375,9.850942611694336,0.04249707981944084,0.05027823522686958
1714858358465703200,7.460703125,9.84615421295166,0.03292027488350868,0.0454898327589035
1714858358475652600,7.470652587890625,9.84615421295166,0.023343466222286224,0.031124621629714966
1714858358485602000,7.48060205078125,9.841365814208984,0.013766659423708916,0.040701430290937424
1714858358495551700,7.4905517578125,9.850942611694336,0.004189853090792894,0.035913024097681046
1714858358505501200,7.500501220703125,9.850942611694336,-0.0005985504249110818,0.031124621629714966
1714858358515450600,7.51045068359375,9.850942611694336,-0.0005985504249110818,0.026336219161748886
1714858358525400000,7.520400146484375,9.84615421295166,-0.010175357572734356,-0.0071826050989329815
1714858358535349500,7.530349609375,9.84615421295166,-0.010175357572734356,-0.035913024097681046
1714858358545299000,7.540298828125,9.841365814208984,-0.01975216343998909,-0.06464344263076782
1714858358555248400,7.550248291015625,9.850942611694336,-0.010175357572734356,-0.07422025501728058
1714858358565198000,7.560197998046875,9.841365814208984,0.004189853090792894,-0.08379705995321274
1714858358575147500,7.5701474609375,9.841365814208984,0.008978256024420261,-0.07422025501728058
1714858358585097000,7.580096923828125,9.841365814208984,0.023343466222286224,-0.05506663769483566
1714858358595046400,7.59004638671875,9.850942611694336,0.03292027488350868,-0.026336219161748886
1714858358604995800,7.599995849609375,9.84615421295166,0.04249707981944084,-0.0071826050989329815
1714858358614945300,7.6099453125,9.870096206665039,0.03770867735147476,0.016759412363171577
1714858358624895000,7.61989501953125,9.850942611694336,0.03292027488350868,0.026336219161748886
1714858358634844400,7.629844482421875,9.855731010437012,0.028131870552897453,0.0454898327589035
1714858358644793900,7.6397939453125,9.850942611694336,0.004189853090792894,0.040701430290937424
1714858358654743300,7.649743408203125,9.841365814208984,0.013766659423708916,0.0454898327589035
1714858358664692700,7.659692626953125,9.84615421295166,0.004189853090792894,0.040701430290937424
1714858358674642200,7.66964208984375,9.841365814208984,0.004189853090792894,0.035913024097681046
1714858358684591600,7.679591552734375,9.850942611694336,-0.01496376097202301,0.026336219161748886
1714858358694541300,7.689541259765625,9.855731010437012,-0.01975216343998909,0.002394201699644327
1714858358704490800,7.69949072265625,9.855731010437012,-0.0293289702385664,-0.016759412363171577
1714858358714440200,7.709440185546875,9.855731010437012,-0.03890577703714371,-0.0454898327589035
1714858358724389600,7.7193896484375,9.84615421295166,-0.0293289702385664,-0.07422025501728058
1714858358734339000,7.729339111328125,9.84615421295166,-0.03890577703714371,-0.08379705995321274
1714858358744288500,7.73928857421875,9.836577415466309,-0.03411737456917763,-0.08379705995321274
1714858358754238200,7.74923828125,9.855731010437012,-0.01975216343998909,-0.0694318488240242
1714858358764187600,7.759187744140625,9.855731010437012,0.004189853090792894,-0.035913024097681046
1714858358774137000,7.76913720703125,9.850942611694336,0.03770867735147476,-0.002394201699644327
1714858358784086500,7.77908642578125,9.860519409179688,0.04728548228740692,0.0454898327589035
1714858358794036000,7.789035888671875,9.84615421295166,0.06643909960985184,0.07422025501728058
1714858358803985400,7.7989853515625,9.850942611694336,0.076015904545784,0.08858546614646912
1714858358813934800,7.808934814453125,9.855731010437012,0.08559270948171616,0.10295066982507706
1714858358823884500,7.818884521484375,9.855731010437012,0.076015904545784,0.09816227108240128
1714858358833834000,7.828833984375,9.84615421295166,0.05686229094862938,0.0933738648891449
1714858358843783400,7.838783447265625,9.84615421295166,0.0520738884806633,0.05506663769483566
1714858358853733000,7.848733154296875,9.84615421295166,0.023343466222286224,0.016759412363171577
1714858358863682600,7.8586826171875,9.841365814208984,0.004189853090792894,-0.016759412363171577
1714858358873632000,7.868632080078125,9.841365814208984,-0.01975216343998909,-0.040701430290937424
1714858358883581700,7.878581787109375,9.841365814208984,-0.0293289702385664,-0.0694318488240242
1714858358893531100,7.88853125,9.850942611694336,-0.03411737456917763,-0.06464344263076782
1714858358903480600,7.89848046875,9.850942611694336,-0.03890577703714371,-0.06464344263076782
1714858358913430300,7.90843017578125,9.860519409179688,-0.03890577703714371,-0.0454898327589035
1714858358923379700,7.918379638671875,9.850942611694336,-0.0293289702385664,-0.0071826050989329815
1714858358933329400,7.928329345703125,9.850942611694336,-0.01496376097202301,0.011971008032560349
1714858358943278800,7.93827880859375,9.860519409179688,-0.0005985504249110818,0.026336219161748886
1714858358953228300,7.948228271484375,9.84615421295166,0.008978256024420261,0.05027823522686958
1714858358963178000,7.958177978515625,9.850942611694336,0.028131870552897453,0.05985504388809204
1714858358973127400,7.96812744140625,9.850942611694336,0.0520738884806633,0.05506663769483566
1714858358983076900,7.978076904296875,9.841365814208984,0.06643909960985184,0.05506663769483566
1714858358993026600,7.988026611328125,9.84615421295166,0.07122749835252762,0.040701430290937424
1714858359002976000,7.99797607421875,9.84615421295166,0.07122749835252762,0.035913024097681046
1714858359012925400,8.007925537109376,9.841365814208984,0.07122749835252762,0.021547814831137657
1714858359022875100,8.017875244140624,9.841365814208984,0.0520738884806633,-0.0071826050989329815
1714858359032824600,8.027824462890624,9.850942611694336,0.03770867735147476,-0.021547814831137657
1714858359042774000,8.03777392578125,9.84615421295166,0.018555063754320145,-0.035913024097681046
1714858359052723700,8.0477236328125,9.841365814208984,-0.005386953707784414,-0.0454898327589035
1714858359062673200,8.057673095703125,9.850942611694336,-0.03411737456917763,-0.040701430290937424
1714858359072622600,8.06762255859375,9.860519409179688,-0.053270988166332245,-0.040701430290937424
1714858359082572300,8.077572265625,9.855731010437012,-0.053270988166332245,-0.011971008032560349
1714858359092521700,8.087521728515625,9.855731010437012,-0.03890577703714371,0.011971008032560349
1714858359102471400,8.097471435546876,9.855731010437012,-0.01975216343998909,0.031124621629714966
1714858359112420900,8.1074208984375,9.850942611694336,-0.0005985504249110818,0.05985504388809204
1714858359122370300,8.117370361328126,9.855731010437012,0.028131870552897453,0.07422025501728058
1714858359132320000,8.127320068359374,9.855731010437012,0.03770867735147476,0.08858546614646912
1714858359142269400,8.13726953125,9.855731010437012,0.05686229094862938,0.07900865375995636
1714858359152219000,8.147218994140625,9.84615421295166,0.0520738884806633,0.05027823522686958
1714858359162168600,8.15716845703125,9.850942611694336,0.04728548228740692,0.016759412363171577
1714858359172118000,8.167117919921875,9.84615421295166,0.03770867735147476,-0.026336219161748886
1714858359182067500,8.1770673828125,9.841365814208984,0.023343466222286224,-0.05506663769483566
1714858359192017200,8.18701708984375,9.850942611694336,0.018555063754320145,-0.06464344263076782
1714858359201966600,8.196966552734375,9.84615421295166,0.004189853090792894,-0.05985504388809204
1714858359211916000,8.206916015625,9.84615421295166,0.013766659423708916,-0.035913024097681046
1714858359221865700,8.21686572265625,9.850942611694336,0.004189853090792894,-0.002394201699644327
1714858359231815200,8.226815185546876,9.84615421295166,-0.0005985504249110818,0.011971008032560349
1714858359241764900,8.236764892578124,9.84615421295166,-0.005386953707784414,0.040701430290937424
1714858359251714300,8.24671435546875,9.855731010437012,-0.0005985504249110818,0.05506663769483566
1714858359261663700,8.256663818359375,9.841365814208984,-0.005386953707784414,0.06464344263076782
1714858359271613200,8.26661328125,9.860519409179688,-0.010175357572734356,0.05985504388809204
1714858359281562600,8.276562744140625,9.860519409179688,-0.01496376097202301,0.05506663769483566
1714858359291512300,8.28651220703125,9.865307807922363,-0.01975216343998909,0.031124621629714966
1714858359301461800,8.296461669921875,9.865307807922363,-0.010175357572734356,-0.0071826050989329815
1714858359311411200,8.3064111328125,9.860519409179688,0.013766659423708916,-0.002394201699644327
1714858359321360600,8.316360595703125,9.84615421295166,0.03770867735147476,0.002394201699644327
1714858359331310000,8.32631005859375,9.84615421295166,0.06165069341659546,0.002394201699644327
1714858359341259500,8.336259521484376,9.836577415466309,0.05686229094862938,0.011971008032560349
1714858359351209000,8.346208984375,9.836577415466309,0.05686229094862938,0.0071826050989329815
1714858359361158700,8.35615869140625,9.84615421295166,0.0520738884806633,-0.0071826050989329815
1714858359371108000,8.366108154296874,9.850942611694336,0.028131870552897453,-0.0071826050989329815
1714858359381057500,8.3760576171875,9.850942611694336,0.023343466222286224,-0.0071826050989329815
1714858359391007000,8.386007080078125,9.855731010437012,0.018555063754320145,0.011971008032560349
1714858359400956400,8.395956298828125,9.84615421295166,0.008978256024420261,0.040701430290937424
1714858359410905900,8.40590576171875,9.850942611694336,0.023343466222286224,0.0694318488240242
1714858359420855600,8.41585546875,9.855731010437012,0.03292027488350868,0.08858546614646912
1714858359430805000,8.425804931640625,9.860519409179688,0.03770867735147476,0.0933738648891449
1714858359440754400,8.43575439453125,9.850942611694336,0.008978256024420261,0.06464344263076782
1714858359450704000,8.445703857421876,9.841365814208984,-0.0293289702385664,-0.0071826050989329815
1714858359460653300,8.4556533203125,9.84615421295166,-0.0867898091673851,-0.08379705995321274
1714858359470602800,8.465602783203124,9.850942611694336,-0.1107318252325058,-0.1412578970193863
1714858359480552200,8.47555224609375,9.841365814208984,-0.09636662155389786,-0.17477671802043915
1714858359490502000,8.485501953125,9.850942611694336,-0.08200141042470932,-0.15562310814857483
1714858359500451300,8.495451416015625,9.84615421295166,-0.053270988166332245,-0.10295066982507706
1714858359510400800,8.50540087890625,9.84615421295166,0.004189853090792894,-0.021547814831137657
1714858359520350200,8.51535009765625,9.860519409179688,0.04728548228740692,0.0694318488240242
1714858359530299600,8.525299560546875,9.850942611694336,0.0999579206109047,0.13168109953403473
1714858359540249000,8.5352490234375,9.850942611694336,0.12389993667602539,0.16998831927776337
1714858359550198800,8.54519873046875,9.84615421295166,0.13826514780521393,0.1843535304069519
1714858359560148200,8.555148193359376,9.855731010437012,0.12389993667602539,0.17477671802043915
1714858359570097700,8.56509765625,9.855731010437012,0.10474632680416107,0.12210428714752197
1714858359580047000,8.575047119140624,9.860519409179688,0.08080431073904037,0.06464344263076782
1714858359589996500,8.58499658203125,9.850942611694336,0.0520738884806633,0.002394201699644327
1714858359599946000,8.594946044921874,9.84615421295166,0.018555063754320145,-0.0454898327589035
1714858359609895400,8.6048955078125,9.836577415466309,-0.005386953707784414,-0.08379705995321274
1714858359619845000,8.61484521484375,9.84615421295166,-0.010175357572734356,-0.10773907601833344
1714858359629794600,8.624794677734375,9.84615421295166,-0.01975216343998909,-0.11252748221158981
1714858359639744000,8.634743896484375,9.860519409179688,-0.03411737456917763,-0.09816227108240128
1714858359649693400,8.644693359375,9.865307807922363,-0.04369417950510979,-0.07422025501728058
1714858359659643000,8.654642822265625,9.855731010437012,-0.06763619929552078,-0.05027823522686958
1714858359669592300,8.66459228515625,9.855731010437012,-0.06763619929552078,-0.016759412363171577
1714858359679541800,8.674541748046876,9.855731010437012,-0.06763619929552078,0.016759412363171577
1714858359689491500,8.684491455078126,9.860519409179688,-0.0628477931022644,0.040701430290937424
1714858359699441000,8.69444091796875,9.855731010437012,-0.03411737456917763,0.06464344263076782
1714858359709390300,8.704390380859374,9.855731010437012,0.013766659423708916,0.08379705995321274
1714858359719339800,8.71433984375,9.841365814208984,0.05686229094862938,0.08858546614646912
1714858359729289200,8.724289306640625,9.84615421295166,0.0999579206109047,0.08858546614646912
1714858359739239000,8.734239013671875,9.84615421295166,0.12868833541870117,0.07900865375995636
1714858359749188400,8.744188232421875,9.850942611694336,0.1430535465478897,0.0454898327589035
1714858359759137800,8.7541376953125,9.84615421295166,0.12389993667602539,0.011971008032560349
1714858359769087500,8.76408740234375,9.84615421295166,0.08080431073904037,-0.040701430290937424
1714858359779037000,8.774036865234375,9.850942611694336,0.03770867735147476,-0.08858546614646912
1714858359788986400,8.783986328125,9.84615421295166,-0.010175357572734356,-0.10773907601833344
1714858359798936000,8.79393603515625,9.84615421295166,-0.058059390634298325,-0.11252748221158981
1714858359808885500,8.803885498046874,9.855731010437012,-0.0867898091673851,-0.08379705995321274
1714858359818835000,8.8138349609375,9.865307807922363,-0.10115502029657364,-0.040701430290937424
1714858359828784600,8.82378466796875,9.870096206665039,-0.08200141042470932,0.021547814831137657
1714858359838734000,8.833734130859375,9.865307807922363,-0.048482585698366165,0.08858546614646912
1714858359848683800,8.843683837890625,9.870096206665039,-0.0005985504249110818,0.1412578970193863
1714858359858633200,8.85363330078125,9.855731010437012,0.028131870552897453,0.16519992053508759
1714858359868582700,8.863582763671875,9.855731010437012,0.06165069341659546,0.1604115068912506
1714858359878532400,8.873532470703125,9.860519409179688,0.076015904545784,0.12689268589019775
1714858359888481800,8.883481689453125,9.860519409179688,0.07122749835252762,0.06464344263076782
1714858359898431200,8.89343115234375,9.850942611694336,0.06643909960985184,0.0071826050989329815
1714858359908381000,8.903380859375,9.84615421295166,0.04249707981944084,-0.0454898327589035
1714858359918330400,8.913330322265624,9.841365814208984,0.03770867735147476,-0.0933738648891449
1714858359928279800,8.92327978515625,9.850942611694336,0.03292027488350868,-0.10773907601833344
1714858359938229500,8.9332294921875,9.850942611694336,0.018555063754320145,-0.09816227108240128
1714858359948179000,8.943178955078125,9.850942611694336,0.008978256024420261,-0.08858546614646912
1714858359958128400,8.95312841796875,9.860519409179688,0.008978256024420261,-0.0454898327589035
1714858359968078000,8.963078125,9.860519409179688,0.004189853090792894,-0.016759412363171577
1714858359978027500,8.973027587890625,9.870096206665039,0.008978256024420261,0.031124621629714966
1714858359987977200,8.982977294921875,9.855731010437012,-0.01496376097202301,0.05506663769483566
1714858359997926700,8.9929267578125,9.865307807922363,-0.0293289702385664,0.05985504388809204
1714858360007876000,9.0028759765625,9.865307807922363,-0.048482585698366165,0.05027823522686958
1714858360017825800,9.01282568359375,9.865307807922363,-0.03890577703714371,0.05985504388809204
1714858360027775200,9.022775146484374,9.860519409179688,-0.03890577703714371,0.0454898327589035
1714858360037724700,9.032724609375,9.870096206665039,-0.010175357572734356,0.0454898327589035
1714858360047674400,9.04267431640625,9.855731010437012,0.013766659423708916,0.040701430290937424
1714858360057623800,9.052623779296875,9.84615421295166,0.04249707981944084,0.026336219161748886
1714858360067573200,9.0625732421875,9.855731010437012,0.07122749835252762,0.011971008032560349
1714858360077523000,9.07252294921875,9.850942611694336,0.08559270948171616,0.002394201699644327
1714858360087472400,9.082472412109375,9.860519409179688,0.07122749835252762,-0.016759412363171577
1714858360097421800,9.092421875,9.850942611694336,0.06165069341659546,-0.040701430290937424
1714858360107371500,9.10237158203125,9.855731010437012,0.03292027488350868,-0.040701430290937424
1714858360117321000,9.112321044921876,9.855731010437012,0.013766659423708916,-0.05506663769483566
1714858360127270700,9.122270751953126,9.860519409179688,-0.005386953707784414,-0.0454898327589035
1714858360137220000,9.13222021484375,9.855731010437012,-0.01975216343998909,-0.016759412363171577
1714858360147169500,9.14216943359375,9.860519409179688,-0.0293289702385664,0.011971008032560349
1714858360157119200,9.152119140625,9.865307807922363,-0.005386953707784414,0.040701430290937424
1714858360167068700,9.162068603515625,9.870096206665039,0.004189853090792894,0.0694318488240242
1714858360177018000,9.17201806640625,9.860519409179688,0.023343466222286224,0.08858546614646912
1714858360186967800,9.1819677734375,9.865307807922363,0.03292027488350868,0.07900865375995636
1714858360196917200,9.191917236328125,9.855731010437012,0.03292027488350868,0.06464344263076782
1714858360206866700,9.20186669921875,9.865307807922363,0.023343466222286224,0.031124621629714966
1714858360216816400,9.21181640625,9.855731010437012,0.023343466222286224,0.002394201699644327
1714858360226765800,9.221765869140626,9.855731010437012,0.004189853090792894,-0.026336219161748886
1714858360236715300,9.23171533203125,9.850942611694336,-0.01496376097202301,-0.05985504388809204
1714858360246665000,9.2416650390625,9.865307807922363,-0.005386953707784414,-0.06464344263076782
1714858360256614400,9.251614501953124,9.865307807922363,-0.005386953707784414,-0.05506663769483566
1714858360266564000,9.261564208984375,9.865307807922363,0.004189853090792894,-0.026336219161748886
1714858360276513500,9.271513427734375,9.860519409179688,0.028131870552897453,-0.002394201699644327
1714858360286463000,9.281462890625,9.855731010437012,0.028131870552897453,0.016759412363171577
1714858360296412400,9.291412353515625,9.855731010437012,0.04728548228740692,0.035913024097681046
1714858360306361900,9.30136181640625,9.870096206665039,0.04728548228740692,0.05027823522686958
1714858360316311300,9.311311279296875,9.874884605407715,0.028131870552897453,0.06464344263076782
1714858360326261000,9.321260986328125,9.87967300415039,0.023343466222286224,0.05506663769483566
1714858360336210400,9.33121044921875,9.865307807922363,0.004189853090792894,0.035913024097681046
1714858360346159900,9.341159912109376,9.870096206665039,-0.0005985504249110818,0.0071826050989329815
1714858360356109300,9.351109375,9.860519409179688,0.004189853090792894,-0.011971008032560349
1714858360366058800,9.361058837890624,9.860519409179688,-0.005386953707784414,-0.0071826050989329815
1714858360376008200,9.37100830078125,9.870096206665039,0.004189853090792894,-0.002394201699644327
1714858360385958000,9.3809580078125,9.855731010437012,0.018555063754320145,-0.011971008032560349
1714858360395907300,9.3909072265625,9.860519409179688,0.023343466222286224,-0.002394201699644327
1714858360405856800,9.400856689453125,9.874884605407715,0.023343466222286224,0.016759412363171577
1714858360415806200,9.41080615234375,9.865307807922363,0.023343466222286224,0.011971008032560349
1714858360425755600,9.420755615234375,9.860519409179688,0.013766659423708916,0.0071826050989329815
1714858360435705000,9.430705078125,9.865307807922363,0.013766659423708916,0.002394201699644327
1714858360445654500,9.440654541015626,9.855731010437012,-0.0005985504249110818,0.002394201699644327
1714858360455604200,9.450604248046876,9.855731010437012,0.013766659423708916,0.0071826050989329815
1714858360465553700,9.4605537109375,9.860519409179688,0.013766659423708916,0.016759412363171577
1714858360475503000,9.470503173828124,9.870096206665039,0.013766659423708916,0.016759412363171577
1714858360485452500,9.48045263671875,9.870096206665039,0.03292027488350868,0.021547814831137657
1714858360495402000,9.490402099609375,9.865307807922363,0.04249707981944084,0.035913024097681046
1714858360505351400,9.500351318359375,9.865307807922363,0.05686229094862938,0.035913024097681046
1714858360515301000,9.510301025390625,9.860519409179688,0.0520738884806633,0.031124621629714966
1714858360525250600,9.52025048828125,9.860519409179688,0.03770867735147476,0.016759412363171577
1714858360535200000,9.530199951171875,9.860519409179688,0.028131870552897453,0.002394201699644327
1714858360545149400,9.5401494140625,9.855731010437012,0.004189853090792894,-0.002394201699644327
1714858360555099000,9.550098876953125,9.865307807922363,-0.01975216343998909,-0.016759412363171577
1714858360565048300,9.56004833984375,9.865307807922363,-0.03411737456917763,-0.026336219161748886
1714858360574997800,9.569997802734376,9.870096206665039,-0.03411737456917763,-0.021547814831137657
1714858360584947500,9.579947509765624,9.870096206665039,-0.03411737456917763,-0.002394201699644327
1714858360594897000,9.58989697265625,9.860519409179688,-0.010175357572734356,0.0071826050989329815
1714858360604846300,9.599846435546874,9.865307807922363,0.008978256024420261,0.031124621629714966
1714858360614795800,9.609795654296875,9.870096206665039,0.013766659423708916,0.040701430290937424
1714858360624745200,9.6197451171875,9.870096206665039,0.04249707981944084,0.040701430290937424
1714858360634694700,9.629694580078125,9.865307807922363,0.0520738884806633,0.0454898327589035
1714858360644644400,9.639644287109375,9.855731010437012,0.04728548228740692,0.035913024097681046
1714858360654593800,9.64959375,9.860519409179688,0.0520738884806633,0.021547814831137657
1714858360664543200,9.659543212890625,9.865307807922363,0.04249707981944084,0.002394201699644327
1714858360674492700,9.66949267578125,9.860519409179688,0.023343466222286224,-0.021547814831137657
1714858360684442000,9.679442138671876,9.865307807922363,0.013766659423708916,-0.0071826050989329815
1714858360694391600,9.6893916015625,9.860519409179688,0.008978256024420261,-0.011971008032560349
1714858360704341000,9.699341064453124,9.855731010437012,0.008978256024420261,-0.002394201699644327
1714858360714290700,9.709290771484374,9.860519409179688,0.013766659423708916,0.002394201699644327
1714858360724240100,9.719240234375,9.865307807922363,0.004189853090792894,0.0071826050989329815
1714858360734189600,9.729189453125,9.874884605407715,0.008978256024420261,0.011971008032560349
1714858360744139000,9.739138916015625,9.87967300415039,0.004189853090792894,0.031124621629714966
1714858360754088400,9.74908837890625,9.870096206665039,0.008978256024420261,0.026336219161748886
1714858360764038100,9.7590380859375,9.865307807922363,0.008978256024420261,0.031124621629714966
1714858360773987600,9.768987548828125,9.870096206665039,0.004189853090792894,0.026336219161748886
1714858360783937000,9.77893701171875,9.865307807922363,0.008978256024420261,0.021547814831137657
1714858360793886700,9.78888671875,9.870096206665039,0.023343466222286224,0.0071826050989329815
1714858360803836200,9.798836181640626,9.865307807922363,0.03292027488350868,0.0071826050989329815
1714858360813785900,9.808785888671874,9.874884605407715,0.04249707981944084,0.011971008032560349
1714858360823735300,9.8187353515625,9.865307807922363,0.04249707981944084,0.011971008032560349
1714858360833684700,9.828684814453124,9.860519409179688,0.04249707981944084,0.016759412363171577
1714858360843634400,9.838634521484375,9.855731010437012,0.04728548228740692,0.011971008032560349
1714858360853584000,9.848583984375,9.860519409179688,0.03292027488350868,0.002394201699644327
1714858360863533300,9.858533203125,9.860519409179688,0.023343466222286224,0.002394201699644327
1714858360873483000,9.86848291015625,9.870096206665039,0.008978256024420261,-0.002394201699644327
1714858360883432400,9.878432373046875,9.870096206665039,-0.005386953707784414,-0.002394201699644327
1714858360893382000,9.8883818359375,9.865307807922363,-0.01496376097202301,-0.011971008032560349
1714858360903331600,9.89833154296875,9.841365814208984,-0.01975216343998909,-0.0071826050989329815
1714858360913281000,9.908281005859376,9.870096206665039,-0.01496376097202301,0.026336219161748886
1714858360923230500,9.91823046875,9.917980194091797,-0.0005985504249110818,0.035913024097681046
1714858360933180200,9.92818017578125,9.850942611694336,0.028131870552897453,0.026336219161748886
1714858360943129600,9.938129638671874,9.870096206665039,0.028131870552897453,0.040701430290937424
1714858360953079300,9.948079345703125,9.860519409179688,0.028131870552897453,0.035913024097681046
1714858360963028700,9.95802880859375,9.860519409179688,0.04728548228740692,0.040701430290937424
1714858360972978200,9.967978271484375,9.870096206665039,0.04249707981944084,0.011971008032560349
1714858360982928000,9.977927978515625,9.865307807922363,0.03770867735147476,0.0071826050989329815
1714858360992877300,9.987877197265625,9.865307807922363,0.028131870552897453,-0.021547814831137657
1714858361002826800,9.99782666015625,9.860519409179688,0.018555063754320145,-0.021547814831137657
1714858361012776400,10.0077763671875,9.860519409179688,0.008978256024420261,-0.026336219161748886
1714858361022726000,10.017725830078126,9.850942611694336,0.004189853090792894,-0.021547814831137657
1714858361032675300,10.02767529296875,9.860519409179688,0.008978256024420261,-0.011971008032560349
1714858361042625000,10.037625,9.865307807922363,0.004189853090792894,0.0071826050989329815
1714858361052574500,10.047574462890625,9.865307807922363,0.004189853090792894,0.026336219161748886
1714858361062524000,10.05752392578125,9.860519409179688,0.013766659423708916,0.031124621629714966
1714858361072473600,10.0674736328125,9.870096206665039,0.018555063754320145,0.040701430290937424
1714858361082423000,10.077423095703125,9.855731010437012,0.013766659423708916,0.040701430290937424
1714858361092372700,10.087372802734375,9.865307807922363,0.023343466222286224,0.0454898327589035
1714858361102322200,10.097322265625,9.860519409179688,0.023343466222286224,0.05027823522686958
1714858361112271600,10.107271728515625,9.860519409179688,0.023343466222286224,0.05027823522686958
1714858361122221300,10.11722119140625,9.865307807922363,0.028131870552897453,0.040701430290937424
1714858361132170800,10.127170654296876,9.865307807922363,0.018555063754320145,0.026336219161748886
