time,seconds_elapsed,z,y,x
1715114107896544800,0.245544677734375,3.2405385971069336,1.301225185394287,-0.3797820508480072
1715114107906494700,0.25549462890625,2.8175220489501953,1.4189932346343994,0.24881482124328613
1715114107916444700,0.265444580078125,1.7106637954711914,1.1341793537139893,0.4743072986602783
1715114107926394600,0.27539453125,0.06102275848388672,0.5835690498352051,-0.004614965990185738
1715114107936344600,0.285344482421875,-1.7768573760986328,0.02034473419189453,-0.8009051084518433
1715114107946294500,0.29529443359375,-3.042311668395996,-0.4357142448425293,-1.4646663665771484
1715114107956244500,0.305244384765625,-2.590961456298828,-0.6625070571899414,-1.6991580724716187
1715114107966194400,0.3151943359375,-0.594639778137207,-0.451688289642334,-1.8853329420089722
1715114107976144400,0.325144287109375,0.5178823471069336,-0.5993599891662598,-1.5594120025634766
1715114107986094300,0.33509423828125,0.18656444549560547,-1.410534381866455,-0.8165686726570129
1715114107996044300,0.345044189453125,-0.559234619140625,-2.1714184284210205,-0.7434201836585999
1715114108005994200,0.354994140625,-1.6793184280395508,-2.3486709594726562,-0.9447582364082336
1715114108015944400,0.3649443359375,-3.3636722564697266,-2.020981550216675,-0.8927388787269592
1715114108025894400,0.374894287109375,-4.453028678894043,-1.10231351852417,-0.3600035309791565
1715114108035844400,0.38484423828125,-4.274997711181641,0.2533230781555176,0.28551843762397766
1715114108045794600,0.394794677734375,-4.030211448669434,0.27430295944213867,0.5414998531341553
1715114108055744500,0.40474462890625,-3.7815608978271484,-0.5653114318847656,1.5812346935272217
1715114108065694700,0.41469482421875,-3.1795735359191895,-1.7904870510101318,1.7498674392700195
1715114108075644700,0.424644775390625,-2.577765464782715,-3.001455545425415,1.3773353099822998
1715114108085594600,0.4345947265625,-2.0334558486938477,-3.2821946144104004,0.930580735206604
1715114108095544800,0.444544921875,-1.7341089248657227,-2.6508665084838867,0.5684859752655029
1715114108105494800,0.454494873046875,-1.9728631973266602,-1.5074479579925537,0.3105473518371582
1715114108115445000,0.464445068359375,-2.5229482650756836,-0.4901390075683594,0.04131856560707092
1715114108125395000,0.47439501953125,-3.2426915168762207,0.06967329978942871,0.08766679465770721
1715114108135345000,0.484344970703125,-3.5492000579833984,0.4490189552307129,-0.13213101029396057
1715114108145295000,0.494295166015625,-3.1294922828674316,0.9583516120910645,-0.45012953877449036
1715114108155245000,0.5042451171875,-3.0609846115112305,1.0825884342193604,-0.09740301221609116
1715114108165195300,0.5141953125,-3.1748085021972656,0.992285966873169,0.7037643194198608
1715114108175145200,0.524145263671875,-3.434558391571045,0.7059602737426758,1.2551378011703491
1715114108185095200,0.53409521484375,-3.6119236946105957,0.335369348526001,1.3221358060836792
1715114108195045400,0.54404541015625,-3.95941162109375,0.06327295303344727,1.2972681522369385
1715114108204995300,0.553995361328125,-4.309065341949463,-0.007020473480224609,1.256389856338501
1715114108214945300,0.5639453125,-4.237930774688721,0.08310604095458984,0.6141208410263062
1715114108224895500,0.5738955078125,-4.899069309234619,-0.17047429084777832,-1.1244478225708008
1715114108234845400,0.583845458984375,-4.518221855163574,-0.003282308578491211,-1.6032981872558594
1715114108244795600,0.593795654296875,-3.36739444732666,0.5390725135803223,-1.243010401725769
1715114108254745600,0.60374560546875,-2.869258403778076,1.0581004619598389,-0.859052836894989
1715114108264695600,0.613695556640625,-2.827653408050537,1.2946605682373047,0.006024301052093506
1715114108274645800,0.623645751953125,-2.9692506790161133,1.1760997772216797,0.4872114658355713
1715114108284595700,0.633595703125,-3.0268545150756836,0.7183406352996826,0.18665015697479248
1715114108294546000,0.6435458984375,-2.704465389251709,0.25397205352783203,-0.34163951873779297
1715114108304495900,0.653495849609375,-2.0667572021484375,0.2193889617919922,-0.3556375503540039
1715114108314445800,0.66344580078125,-1.034149169921875,0.5196895599365234,-0.33279573917388916
1715114108324396000,0.67339599609375,0.45522403717041016,0.8678641319274902,-0.565409779548645
1715114108334346000,0.683345947265625,1.245107650756836,0.8817582130432129,-0.5080236196517944
1715114108344296200,0.693296142578125,1.5511579513549805,0.7448160648345947,0.5936389565467834
1715114108354246100,0.70324609375,1.8122367858886719,0.5265569686889648,3.062760353088379
1715114108364196000,0.713196044921875,3.5379323959350586,0.684715986251831,3.4273600578308105
1715114108374146300,0.723146240234375,5.354602813720703,0.5023658275604248,-1.5666453838348389
1715114108384096300,0.73309619140625,7.320638656616211,0.858837366104126,-4.877124309539795
1715114108394046500,0.74304638671875,6.428618431091309,0.8324620723724365,-4.38104248046875
1715114108403996400,0.752996337890625,4.977156639099121,0.6088802814483643,-3.2772068977355957
1715114108413946400,0.7629462890625,4.492530822753906,1.183504343032837,-2.668093204498291
1715114108423896600,0.772896484375,3.9631872177124023,1.7921996116638184,-1.8029420375823975
1715114108433846500,0.782846435546875,3.9848899841308594,1.9227452278137207,-1.1030687093734741
1715114108443796500,0.79279638671875,4.4592437744140625,1.4924697875976562,-0.9509667158126831
1715114108453746700,0.80274658203125,5.140656471252441,0.757021427154541,-1.0593703985214233
1715114108463696600,0.812696533203125,6.2604827880859375,0.29462194442749023,-1.0117876529693604
1715114108473646800,0.822646728515625,7.305000305175781,-0.2675187587738037,-1.1805778741836548
1715114108483596800,0.8325966796875,7.048851013183594,-1.0899550914764404,-1.6192246675491333
1715114108493546800,0.842546630859375,5.490838050842285,-1.492509126663208,-2.0941529273986816
1715114108503497000,0.8524970703125,3.4557247161865234,-1.4670419692993164,-2.208301544189453
1715114108513447000,0.862447021484375,1.5773029327392578,-1.7019343376159668,-2.4017348289489746
1715114108523397000,0.872397216796875,0.4167518615722656,-1.8086374998092651,-2.50779390335083
1715114108533347000,0.88234716796875,-0.19801044464111328,-1.8383392095565796,-1.9624994993209839
1715114108543297000,0.892297119140625,-0.4675159454345703,-1.7684614658355713,-0.8065494298934937
1715114108553247200,0.902247314453125,-0.6045312881469727,-1.6193647384643555,0.10157883167266846
1715114108563197200,0.912197265625,-0.6757345199584961,-1.5655100345611572,0.8364608883857727
1715114108573147400,0.9221474609375,-1.3771238327026367,-1.633922815322876,1.3928558826446533
1715114108583097300,0.932097412109375,-1.8850364685058594,-1.6207551956176758,1.4944677352905273
1715114108593047300,0.94204736328125,-1.9510421752929688,-1.8134450912475586,1.7405481338500977
1715114108602997500,0.95199755859375,-1.9429454803466797,-2.0931711196899414,2.0102100372314453
1715114108612947500,0.961947509765625,-2.7169156074523926,-2.4826278686523438,1.900416612625122
1715114108622897700,0.971897705078125,-2.1519899368286133,-1.8155208826065063,0.8472883105278015
1715114108632847600,0.98184765625,-1.92047119140625,-1.7574764490127563,0.21840989589691162
1715114108642797600,0.991797607421875,-2.2165746688842773,-2.310482978820801,0.0246390700340271
1715114108652747800,1.001747802734375,-2.7320380210876465,-2.5609569549560547,-0.05265921354293823
1715114108662697700,1.01169775390625,-3.5697007179260254,-2.4896292686462402,-0.09623008966445923
1715114108672647700,1.021647705078125,-4.695694446563721,-2.2964916229248047,0.01976221799850464
1715114108682598000,1.031597900390625,-5.409383296966553,-1.9570815563201904,0.3586103916168213
1715114108692547800,1.0415478515625,-5.418062686920166,-1.609060525894165,0.7719482779502869
1715114108702498000,1.051498046875,-4.92219352722168,-1.4320554733276367,1.020555853843689
1715114108712448000,1.061447998046875,-4.369600772857666,-1.4689106941223145,1.0845484733581543
1715114108722398000,1.07139794921875,-3.4179797172546387,-1.8570855855941772,0.7648475766181946
1715114108732348200,1.08134814453125,-3.383721351623535,-1.7383577823638916,0.9498366713523865
1715114108742298000,1.091298095703125,-3.228764057159424,-1.1905007362365723,0.9480739831924438
1715114108752248300,1.101248291015625,-2.8090033531188965,-0.8597559928894043,0.8220447301864624
1715114108762198300,1.1111982421875,-3.0862984657287598,-0.7955856323242188,0.8124908208847046
1715114108772148200,1.121148193359375,-3.3834104537963867,-0.522186279296875,1.0687114000320435
1715114108782098200,1.13109814453125,-3.7085976600646973,0.06383013725280762,1.441779613494873
1715114108792048400,1.14104833984375,-3.794625759124756,0.8630025386810303,1.6147902011871338
1715114108801998300,1.150998291015625,-3.6409668922424316,1.3789668083190918,1.9358606338500977
1715114108811948300,1.1609482421875,-3.4637293815612793,1.8754496574401855,1.9462350606918335
1715114108821898200,1.170898193359375,-3.516099452972412,2.1948819160461426,1.7108232975006104
1715114108831848200,1.18084814453125,-3.001248359680176,2.2436952590942383,1.355454444885254
1715114108841798100,1.190798095703125,-1.6388897895812988,2.2169981002807617,1.1315901279449463
1715114108851748400,1.200748291015625,-0.12187862396240234,2.0583934783935547,1.0294421911239624
1715114108861698300,1.2106982421875,1.4126768112182617,1.8801875114440918,0.9712575674057007
1715114108871648300,1.220648193359375,3.1098203659057617,1.620107889175415,0.9118058085441589
1715114108881598200,1.23059814453125,4.540300369262695,1.408064365386963,0.4560394883155823
1715114108891548200,1.240548095703125,5.781126976013184,1.4539437294006348,-0.17833653092384338
1715114108901498400,1.250498291015625,6.590547561645508,1.699371099472046,-0.7157599925994873
1715114108911448300,1.2604482421875,6.780858993530273,1.9582734107971191,-0.9959526062011719
1715114108921398300,1.270398193359375,6.491974830627441,2.0969457626342773,-0.8244379162788391
1715114108931348200,1.28034814453125,5.622483253479004,2.3799989223480225,-0.2977027893066406
1715114108941298200,1.290298095703125,4.240144729614258,2.7311244010925293,0.183457612991333
1715114108951248400,1.300248291015625,2.970147132873535,2.9334561824798584,0.23718732595443726
1715114108961198300,1.3101982421875,2.3287925720214844,2.7538673877716064,0.07545909285545349
1715114108971148300,1.320148193359375,2.4837121963500977,2.1016974449157715,-0.038275569677352905
1715114108981098200,1.33009814453125,3.5008649826049805,1.3989412784576416,-0.26973581314086914
1715114108991048200,1.340048095703125,4.860235214233398,0.6658637523651123,-0.6040911674499512
1715114109000998100,1.349998046875,5.790457725524902,-0.03667140007019043,-0.888144850730896
1715114109010948400,1.3599482421875,5.866172790527344,-0.7423181533813477,-1.1303174495697021
1715114109020898300,1.369898193359375,4.824180603027344,-1.1627111434936523,-1.0705523490905762
1715114109030848300,1.37984814453125,3.0657386779785156,-1.098102331161499,-0.5182837247848511
1715114109040798200,1.389798095703125,1.4332714080810547,-1.1340436935424805,0.270097553730011
1715114109050748200,1.399748046875,1.1187982559204102,-1.50694739818573,1.1898865699768066
1715114109060698400,1.409698486328125,1.384307861328125,-1.8065110445022583,2.008469820022583
1715114109070648300,1.4196484375,1.4182491302490234,-1.8751213550567627,2.171884298324585
1715114109080598300,1.429598388671875,1.0236568450927734,-2.115758180618286,1.7120258808135986
1715114109090548500,1.439548583984375,0.39364147186279297,-2.5447115898132324,0.9586020708084106
1715114109100498400,1.44949853515625,-0.3036994934082031,-2.950904607772827,0.2353130578994751
1715114109110448600,1.45944873046875,-0.9671745300292969,-3.145860433578491,-0.38254350423812866
1715114109120398600,1.469398681640625,-1.7046594619750977,-3.07308292388916,-0.8172543048858643
1715114109130348500,1.4793486328125,-2.747128963470459,-2.9084739685058594,-1.0230469703674316
1715114109140298800,1.489298828125,-3.7971396446228027,-2.5966458320617676,-1.002617359161377
1715114109150248700,1.499248779296875,-4.7357001304626465,-2.286325216293335,-0.8842923641204834
1715114109160199000,1.509198974609375,-5.525582790374756,-1.9582146406173706,-0.5561689138412476
1715114109170148900,1.51914892578125,-5.973273277282715,-1.5014660358428955,0.07907980680465698
1715114109180098800,1.529098876953125,-6.015037536621094,-1.0580496788024902,0.839231014251709
1715114109190049000,1.539049072265625,-6.006314277648926,-0.8257222175598145,1.2821191549301147
1715114109199999000,1.5489990234375,-6.106323719024658,-0.7230048179626465,1.3899646997451782
1715114109209949000,1.558948974609375,-6.221691131591797,-0.5305037498474121,1.2395384311676025
1715114109219899100,1.568899169921875,-6.2879743576049805,-0.2926781177520752,0.9981852173805237
1715114109229849000,1.57884912109375,-6.069577217102051,-0.30666422843933105,0.5545700192451477
1715114109239799300,1.58879931640625,-5.516582489013672,-0.4331958293914795,0.08788508176803589
1715114109249749200,1.598749267578125,-5.13938045501709,-0.3357887268066406,-0.2795121967792511
1715114109259699200,1.60869921875,-5.126677513122559,-0.020587444305419922,-0.5387099981307983
1715114109269649400,1.6186494140625,-5.204289436340332,0.20232868194580078,-0.7249000072479248
1715114109279599400,1.628599365234375,-4.728627681732178,0.25681018829345703,-0.7478336691856384
1715114109289549600,1.638549560546875,-3.7392773628234863,0.4062995910644531,-0.6297144293785095
1715114109299499500,1.64849951171875,-2.6229310035705566,0.5980157852172852,-0.4094036817550659
1715114109309449500,1.658449462890625,-1.932692050933838,0.6985025405883789,-0.3261793851852417
1715114109319399700,1.668399658203125,-1.7733960151672363,0.6994690895080566,-0.47740012407302856
1715114109329349600,1.678349609375,-1.6311631202697754,0.6895813941955566,-0.90366530418396
1715114109339299800,1.6882998046875,-1.1646947860717773,0.7059838771820068,-1.460890293121338
1715114109349249800,1.698249755859375,-0.07503032684326172,0.6090233325958252,-1.937584400177002
1715114109359199700,1.70819970703125,1.3665227890014648,0.43018221855163574,-2.3720240592956543
1715114109369150000,1.71814990234375,2.7724666595458984,0.47383832931518555,-2.7016186714172363
1715114109379100000,1.728099853515625,3.5853500366210938,0.6393287181854248,-2.7601542472839355
1715114109389050000,1.738050048828125,3.695206642150879,1.0143024921417236,-2.3897414207458496
1715114109399000000,1.748,3.6139516830444336,1.4768199920654297,-1.9623569250106812
1715114109408950000,1.757949951171875,3.7693967819213867,1.744288444519043,-1.7969282865524292
1715114109418900200,1.767900146484375,4.011409759521484,1.863328456878662,-1.7209508419036865
1715114109428850200,1.77785009765625,3.9958372116088867,1.9941930770874023,-1.5501301288604736
1715114109438800100,1.787800048828125,3.637042999267578,2.2929747104644775,-1.2877616882324219
1715114109448750300,1.797750244140625,3.2204456329345703,2.6930489540100098,-0.6941733956336975
1715114109458700300,1.8077001953125,3.025069236755371,3.0044243335723877,-0.07895515114068985
1715114109468650500,1.817650390625,3.482175827026367,3.129584312438965,0.4332113564014435
1715114109478600400,1.827600341796875,4.470510482788086,2.9232168197631836,0.9026451110839844
1715114109488550400,1.83755029296875,5.889954566955566,2.3033761978149414,1.1098006963729858
1715114109498500600,1.84750048828125,7.232675552368164,1.4371600151062012,1.0185363292694092
1715114109508450600,1.857450439453125,7.588560104370117,0.5062308311462402,0.49660375714302063
1715114109518400800,1.86740087890625,6.87882137298584,-0.21657347679138184,-0.17512091994285583
1715114109528350700,1.877350830078125,5.251494407653809,-0.7391982078552246,-0.9117459058761597
1715114109538300700,1.88730078125,3.3095483779907227,-1.0658390522003174,-1.582992672920227
1715114109548251000,1.8972509765625,1.5954484939575195,-1.263411283493042,-1.8695684671401978
1715114109558200800,1.907200927734375,0.24872970581054688,-1.3182554244995117,-1.7299269437789917
1715114109568151000,1.917151123046875,-0.6389169692993164,-1.2800266742706299,-1.2166030406951904
1715114109578101000,1.92710107421875,-1.1522741317749023,-1.3027963638305664,-0.6617437601089478
1715114109588051000,1.937051025390625,-1.275141716003418,-1.3836359977722168,-0.30074381828308105
1715114109598001200,1.947001220703125,-1.0235891342163086,-1.6324691772460938,-0.15716488659381866
1715114109607951000,1.956951171875,-0.6175746917724609,-1.9422156810760498,-0.16321012377738953
1715114109617901300,1.9669013671875,-0.2707090377807617,-2.250825881958008,-0.3007371723651886
1715114109627851300,1.976851318359375,-0.03804206848144531,-2.526189088821411,-0.4250146746635437
1715114109637801200,1.98680126953125,-0.31801700592041016,-2.748265027999878,-0.5263091325759888
1715114109647751400,1.99675146484375,-1.0795612335205078,-2.916670322418213,-0.7080056667327881
1715114109657701400,2.006701416015625,-2.1349620819091797,-3.091170310974121,-0.8821988105773926
1715114109667651300,2.0166513671875,-3.035447120666504,-2.745364189147949,0.4216679036617279
1715114109677601500,2.0266015625,-3.2039103507995605,-2.1245362758636475,1.8896996974945068
1715114109687551500,2.036551513671875,-4.132845401763916,-2.0607824325561523,0.24516403675079346
1715114109697501700,2.046501708984375,-4.676853179931641,-2.007659912109375,-1.2919243574142456
1715114109707451600,2.05645166015625,-5.717181205749512,-1.976048469543457,-0.9628036022186279
1715114109717401600,2.066401611328125,-6.440095901489258,-2.1422314643859863,-0.1515762060880661
1715114109727351800,2.076351806640625,-6.333253860473633,-2.089754819869995,-0.42996466159820557
1715114109737301800,2.0863017578125,-6.220739364624023,-1.799748420715332,-1.1457345485687256
1715114109747252000,2.096251953125,-6.314525604248047,-1.4677555561065674,-1.3161520957946777
1715114109757202000,2.106201904296875,-6.13898229598999,-1.2754442691802979,-0.9971168637275696
1715114109767151900,2.11615185546875,-5.380461692810059,-0.9378628730773926,-0.6970076560974121
1715114109777102000,2.12610205078125,-4.334036827087402,-0.2971687316894531,-0.3039080798625946
1715114109787052000,2.136052001953125,-3.6979007720947266,0.3977079391479492,0.1579047292470932
1715114109797002200,2.146002197265625,-3.4927425384521484,0.7343838214874268,0.2091129869222641
1715114109806952200,2.1559521484375,-2.811476230621338,0.9215850830078125,-0.35835862159729004
1715114109816902100,2.165902099609375,-1.7995028495788574,1.1095521450042725,-0.8529813885688782
1715114109826852400,2.175852294921875,-0.6787748336791992,1.4595367908477783,-0.8434125781059265
1715114109836802300,2.18580224609375,0.5772066116333008,1.8454573154449463,-0.3905722200870514
1715114109846752300,2.195752197265625,1.617661476135254,2.16632342338562,0.10876411199569702
1715114109856702500,2.205702392578125,2.9000959396362305,2.3616089820861816,0.4886491298675537
1715114109866652400,2.21565234375,4.18638801574707,2.346423387527466,0.6275222301483154
1715114109876602600,2.2256025390625,5.274298667907715,2.2243309020996094,0.3503333330154419
1715114109886552600,2.235552490234375,5.743053436279297,2.128776788711548,-0.1837468445301056
1715114109896502500,2.24550244140625,6.049582481384277,2.0099759101867676,-0.6973844766616821
1715114109906452700,2.25545263671875,6.638842582702637,1.898533582687378,-0.936326801776886
1715114109916402700,2.265402587890625,7.401767730712891,1.6490120887756348,-1.1428838968276978
1715114109926353000,2.275352783203125,7.896644592285156,1.60127592086792,-1.5930571556091309
1715114109936302800,2.285302734375,7.674410820007324,1.6991753578186035,-2.1309399604797363
1715114109946252800,2.295252685546875,6.376946449279785,1.6272222995758057,-2.6353213787078857
1715114109956203000,2.305203125,4.674752235412598,1.9567935466766357,-2.5998029708862305
1715114109966153000,2.315153076171875,3.0476455688476562,2.3033995628356934,-2.2661454677581787
1715114109976103200,2.325103271484375,2.1590938568115234,2.5302913188934326,-1.5330004692077637
1715114109986053000,2.33505322265625,1.7512750625610352,2.7858939170837402,-0.6996534466743469
1715114109996003000,2.345003173828125,1.7548561096191406,2.713489532470703,0.13184738159179688
1715114110005953300,2.354953369140625,2.2634963989257812,2.2263312339782715,0.6119678020477295
1715114110015903200,2.3649033203125,3.1566944122314453,1.4969301223754883,0.5754256248474121
1715114110025853400,2.374853515625,3.623764991760254,0.6290314197540283,0.18475878238677979
1715114110035803400,2.384803466796875,3.3995933532714844,-0.23041725158691406,-0.1261768341064453
1715114110045753300,2.39475341796875,2.4713973999023438,-1.025141954421997,-0.34351783990859985
1715114110055703600,2.40470361328125,1.191920280456543,-1.6937756538391113,-0.6860631704330444
1715114110065653500,2.414653564453125,0.14621257781982422,-2.037398099899292,-0.8400184512138367
1715114110075603500,2.424603515625,-0.38649845123291016,-2.1920342445373535,-0.5355250835418701
1715114110085553700,2.4345537109375,-0.4217205047607422,-2.347073554992676,-0.10063910484313965
1715114110095503600,2.444503662109375,-0.3165435791015625,-2.5470142364501953,0.1474463939666748
1715114110105453800,2.454453857421875,-0.41693687438964844,-2.707420825958252,0.2126535177230835
1715114110115403800,2.46440380859375,-0.9069948196411133,-2.82161021232605,0.17299234867095947
1715114110125354000,2.47435400390625,-1.7333431243896484,-2.8455748558044434,0.08330225944519043
1715114110135304000,2.484303955078125,-2.5286359786987305,-2.753147602081299,-0.03134024143218994
1715114110145254100,2.494254150390625,-3.070138454437256,-2.766810894012451,-0.07693213224411011
1715114110155204400,2.504204345703125,-3.536421775817871,-2.7753124237060547,-0.18122774362564087
1715114110165154300,2.514154296875,-4.056276798248291,-2.6120519638061523,-0.40165233612060547
1715114110175104500,2.5241044921875,-4.437349319458008,-2.412841558456421,-0.7059549689292908
1715114110185054500,2.534054443359375,-4.673771858215332,-2.2708964347839355,-0.8096054792404175
1715114110195004700,2.544004638671875,-4.755226135253906,-2.169565439224243,-0.7650671005249023
1715114110204955000,2.553954833984375,-4.752367973327637,-2.0070042610168457,-0.6670344471931458
1715114110214904800,2.56390478515625,-4.764124870300293,-1.7725236415863037,-0.5145362019538879
1715114110224855000,2.57385498046875,-5.061853885650635,-1.6007466316223145,-0.40468472242355347
1715114110234805000,2.583804931640625,-5.393387794494629,-1.392038106918335,-0.2644645869731903
1715114110244755200,2.593755126953125,-5.417778968811035,-1.0223331451416016,0.027141153812408447
1715114110254705400,2.603705322265625,-5.309873580932617,-0.5748968124389648,0.4151790738105774
1715114110264655400,2.6136552734375,-5.167389869689941,-0.24712896347045898,0.46111249923706055
1715114110274605600,2.62360546875,-4.843990802764893,0.09288501739501953,0.09694439172744751
1715114110284555500,2.633555419921875,-4.469618797302246,0.49863433837890625,-0.19449374079704285
1715114110294505700,2.643505615234375,-3.977809429168701,0.8513240814208984,-0.35876184701919556
1715114110304456000,2.6534560546875,-3.115572929382324,1.092702865600586,-0.3829428553581238
1715114110314406000,2.663406005859375,-2.0634007453918457,1.242638111114502,-0.3273106813430786
1715114110324356000,2.673356201171875,-1.1533174514770508,1.430051326751709,-0.5083653330802917
1715114110334306000,2.68330615234375,-0.3833808898925781,1.757413387298584,-0.6953777074813843
1715114110344256300,2.69325634765625,0.576441764831543,1.927577018737793,-0.4660990238189697
1715114110354206500,2.70320654296875,1.5438299179077148,2.079345703125,-0.10959666967391968
1715114110364156400,2.713156494140625,2.236863136291504,2.2751121520996094,0.1535933017730713
1715114110374106600,2.723106689453125,2.7035369873046875,2.387251377105713,0.5732443332672119
1715114110384056600,2.733056640625,3.0632009506225586,2.3460631370544434,0.992678165435791
1715114110394006800,2.7430068359375,3.3210878372192383,2.157205104827881,0.9784078598022461
1715114110403956700,2.752956787109375,3.363766670227051,1.815901756286621,0.6114452481269836
1715114110413906700,2.76290673828125,3.230327606201172,1.3612937927246094,0.014989390969276428
1715114110423857000,2.77285693359375,3.2028894424438477,1.0325102806091309,-0.7108446359634399
1715114110433806800,2.782806884765625,3.4157447814941406,1.0028786659240723,-1.3301953077316284
1715114110443757000,2.792757080078125,3.5261058807373047,1.2292289733886719,-1.6077232360839844
1715114110453707000,2.80270703125,3.402067184448242,1.5975346565246582,-1.4357041120529175
1715114110463657000,2.812656982421875,2.9968175888061523,2.030346393585205,-1.000468373298645
1715114110473607200,2.822607177734375,2.6010990142822266,2.3631811141967773,-0.42193514108657837
1715114110483557000,2.83255712890625,2.29885196685791,2.567526340484619,0.07123704999685287
1715114110493507300,2.84250732421875,2.35457706451416,2.678525447845459,0.6923306584358215
1715114110503457300,2.852457275390625,3.1292238235473633,2.5170421600341797,1.2985105514526367
1715114110513407200,2.8624072265625,4.2838850021362305,1.917060375213623,1.428523302078247
1715114110523357400,2.872357421875,4.879236221313477,1.028111457824707,1.0799336433410645
1715114110533307400,2.882307373046875,4.659025192260742,0.15667438507080078,0.5175184011459351
1715114110543257600,2.892257568359375,3.8907127380371094,-0.6548309326171875,-0.2142602652311325
1715114110553207600,2.90220751953125,2.768667221069336,-1.3481214046478271,-1.105118989944458
1715114110563157500,2.912157470703125,1.6641645431518555,-1.7184405326843262,-1.9723743200302124
1715114110573107700,2.922107666015625,0.7827358245849609,-1.8097493648529053,-2.3981380462646484
1715114110583057700,2.9320576171875,0.10107612609863281,-1.758498191833496,-2.2790050506591797
1715114110593007900,2.9420078125,-0.2137622833251953,-1.6428284645080566,-1.6898003816604614
1715114110602957800,2.951957763671875,-0.3533143997192383,-1.5451111793518066,-0.9492789506912231
1715114110612907800,2.96190771484375,-0.23716449737548828,-1.560256004333496,-0.36231571435928345
1715114110622858000,2.97185791015625,0.19124126434326172,-1.8171603679656982,0.0739627480506897
1715114110632808000,2.981807861328125,0.741337776184082,-2.199167013168335,0.22408455610275269
1715114110642758000,2.9917578125,1.0944557189941406,-2.490501880645752,0.21817439794540405
1715114110652708000,3.0017080078125,1.1282663345336914,-2.7429254055023193,0.251390278339386
1715114110662658000,3.011657958984375,0.7823610305786133,-2.9208855628967285,0.16762328147888184
1715114110672608300,3.021608154296875,0.25442028045654297,-3.0075130462646484,0.02076411247253418
1715114110682558200,3.03155810546875,-0.6922931671142578,-3.086121082305908,-0.17875340580940247
1715114110692508200,3.041508056640625,-2.1179537773132324,-3.055696487426758,-0.4364352524280548
1715114110702458400,3.051458251953125,-3.6301279067993164,-2.904116153717041,-0.7143985629081726
1715114110712408300,3.061408203125,-4.938417911529541,-2.7718021869659424,-0.8917552828788757
1715114110722358500,3.071358642578125,-5.8350348472595215,-2.6791653633117676,-0.9623051881790161
1715114110732308500,3.08130859375,-6.208357810974121,-2.570812225341797,-0.8439880609512329
1715114110742258400,3.091258544921875,-6.448151588439941,-2.372809648513794,-0.6548614501953125
1715114110752208600,3.101208740234375,-6.571605205535889,-2.071566104888916,-0.3169972002506256
1715114110762158600,3.11115869140625,-6.2084455490112305,-1.603010654449463,0.2580963671207428
1715114110772108800,3.12110888671875,-5.584691524505615,-1.0544300079345703,0.878068208694458
1715114110782058800,3.131058837890625,-4.804559230804443,-0.5063414573669434,1.2276755571365356
1715114110792008700,3.1410087890625,-4.262199401855469,-0.08743524551391602,1.0894731283187866
1715114110801959000,3.150958984375,-3.932037353515625,0.24481201171875,0.6613361835479736
1715114110811908900,3.160908935546875,-3.5797009468078613,0.6014928817749023,0.25327739119529724
1715114110821859000,3.170859130859375,-3.2487869262695312,0.9939136505126953,-0.18831035494804382
1715114110831809000,3.18080908203125,-2.8497414588928223,1.4203996658325195,-0.6450209617614746
1715114110841759000,3.190759033203125,-2.2655715942382812,1.8951592445373535,-0.7835694551467896
1715114110851709200,3.200709228515625,-1.136134147644043,2.316692352294922,-0.2675899267196655
1715114110861659100,3.2106591796875,0.3119211196899414,2.5797905921936035,0.519881546497345
1715114110871609000,3.220609130859375,1.6917381286621094,2.6202735900878906,0.8330604434013367
1715114110881559300,3.230559326171875,2.9336318969726562,2.5263962745666504,0.6731367707252502
1715114110891509200,3.24050927734375,4.356640815734863,2.3829216957092285,0.6421858072280884
1715114110901459500,3.25045947265625,5.893764495849609,2.2656350135803223,0.8865686655044556
1715114110911409400,3.260409423828125,7.449531555175781,2.2110934257507324,0.8797464966773987
1715114110921359400,3.270359375,8.469210624694824,1.9566893577575684,0.6121281385421753
1715114110931309600,3.2803095703125,8.672567367553711,1.6256928443908691,0.015323877334594727
1715114110941259500,3.290259521484375,7.8054399490356445,1.1767544746398926,-0.5831689834594727
1715114110951209700,3.300209716796875,6.124752044677734,1.2218222618103027,-1.2843526601791382
1715114110961159700,3.31015966796875,4.44173526763916,1.4533390998840332,-1.431220293045044
1715114110971109600,3.320109619140625,3.2046823501586914,1.6687932014465332,-0.5555379986763
1715114110981059800,3.330059814453125,2.5621461868286133,2.367755889892578,0.47984790802001953
1715114110991009800,3.340009765625,1.5926885604858398,2.3412327766418457,0.9411712884902954
1715114111000960000,3.3499599609375,0.7883510589599609,1.6306118965148926,0.8628013134002686
1715114111010910000,3.359909912109375,0.8550634384155273,0.7799158096313477,0.22703802585601807
1715114111020860000,3.36985986328125,1.0047388076782227,-0.11287450790405273,-0.45041391253471375
1715114111030810000,3.37981005859375,1.022038459777832,-0.9049100875854492,-1.0282373428344727
1715114111040760000,3.389760009765625,0.7743692398071289,-1.4922528266906738,-1.1709589958190918
1715114111050710000,3.3997099609375,0.27272605895996094,-1.8894925117492676,-0.8298398852348328
1715114111060660200,3.40966015625,-0.21438980102539062,-2.2348763942718506,-0.32345953583717346
1715114111070610200,3.419610107421875,-0.6050796508789062,-2.4718031883239746,0.2189030647277832
1715114111080560400,3.429560302734375,-0.9216594696044922,-2.4694762229919434,1.0148029327392578
1715114111090510300,3.43951025390625,-1.1440610885620117,-2.6894378662109375,1.6389873027801514
1715114111100460300,3.449460205078125,-1.0490188598632812,-2.7627792358398438,1.732872724533081
1715114111110410500,3.459410400390625,-0.2390127182006836,-2.4988389015197754,1.638258695602417
1715114111120360400,3.4693603515625,0.05655384063720703,-2.628997802734375,1.26296067237854
1715114111130310700,3.479310546875,-0.3908376693725586,-2.6644716262817383,0.6560155749320984
1715114111140260600,3.489260498046875,-1.4371042251586914,-2.3265421390533447,0.12785041332244873
1715114111150210600,3.49921044921875,-2.421158790588379,-1.817359209060669,0.07077032327651978
1715114111160160800,3.509160888671875,-3.362452507019043,-1.1737606525421143,0.5945730209350586
1715114111170110700,3.51911083984375,-3.9862112998962402,-0.5672867298126221,1.2190651893615723
1715114111180061000,3.52906103515625,-4.373067855834961,-0.3970804214477539,1.467993974685669
1715114111190011000,3.539010986328125,-4.46677303314209,-0.4853549003601074,1.086403250694275
1715114111199960800,3.5489609375,-4.143681049346924,-0.5468072891235352,0.6936897039413452
1715114111209911000,3.5589111328125,-3.67069149017334,-0.619910717010498,0.7050594687461853
1715114111219861000,3.568861083984375,-3.4246206283569336,-0.6367459297180176,0.626634955406189
1715114111229811200,3.578811279296875,-3.4687957763671875,-0.804905891418457,0.48317205905914307
1715114111239761200,3.58876123046875,-3.6651439666748047,-0.8156073093414307,0.3916459083557129
1715114111249711000,3.598711181640625,-3.869170665740967,-0.4876587390899658,0.29425758123397827
1715114111259661300,3.608661376953125,-4.108871936798096,-0.07453346252441406,0.1280120611190796
1715114111269611300,3.618611328125,-4.146573543548584,0.1832277774810791,-0.03220576047897339
1715114111279561200,3.628561279296875,-4.027276515960693,0.33710694313049316,-0.1221792995929718
1715114111289511400,3.638511474609375,-3.8094334602355957,0.5850956439971924,-0.17665264010429382
1715114111299461400,3.64846142578125,-3.5465517044067383,0.8716135025024414,-0.20304898917675018
1715114111309411600,3.65841162109375,-2.9867186546325684,1.175217628479004,0.011856615543365479
1715114111319361500,3.668361572265625,-1.9447226524353027,1.414909839630127,0.44518089294433594
1715114111329311500,3.6783115234375,-0.5354032516479492,1.5355796813964844,0.8030498027801514
1715114111339261700,3.68826171875,0.9893016815185547,1.5849361419677734,0.8401938676834106
1715114111349211600,3.698211669921875,2.172210693359375,1.6217312812805176,0.6796796917915344
1715114111359161900,3.708161865234375,3.0338191986083984,1.6453237533569336,0.583031177520752
1715114111369111800,3.71811181640625,3.6278839111328125,1.6078598499298096,0.4850476384162903
1715114111379061800,3.728061767578125,3.9221601486206055,1.6381418704986572,0.27823394536972046
1715114111389012000,3.738011962890625,4.022339820861816,1.6319537162780762,0.10271851718425751
1715114111398962000,3.7479619140625,4.052942276000977,1.2943744659423828,-0.24661195278167725
1715114111408912100,3.757912109375,4.038127899169922,0.908193826675415,-0.8765670657157898
1715114111418862000,3.767862060546875,4.136294364929199,0.7189633846282959,-1.495926856994629
1715114111428812000,3.77781201171875,4.472594261169434,0.7061569690704346,-1.876725435256958
1715114111438762200,3.78776220703125,4.599767684936523,0.7997443675994873,-2.0812783241271973
1715114111448712200,3.797712158203125,4.012441635131836,1.2119965553283691,-2.0049853324890137
1715114111458662400,3.807662353515625,3.0395326614379883,1.7460870742797852,-1.7207461595535278
1715114111468612400,3.8176123046875,2.3279848098754883,2.380582809448242,-0.7796922922134399
1715114111478562300,3.827562255859375,2.1379261016845703,2.4763851165771484,0.35825711488723755
1715114111488512500,3.837512451171875,2.06569766998291,2.2886972427368164,1.2401667833328247
1715114111498462500,3.84746240234375,2.1770896911621094,2.0846099853515625,1.956843376159668
1715114111508412400,3.857412353515625,2.7154531478881836,1.6887249946594238,2.7071895599365234
1715114111518362600,3.867362548828125,3.280763626098633,0.9837613105773926,3.1535730361938477
1715114111528312600,3.8773125,3.225290298461914,0.0579833984375,2.7302424907684326
1715114111538262800,3.8872626953125,2.325908660888672,-0.7919943332672119,1.553490161895752
1715114111548212700,3.897212646484375,0.7825489044189453,-1.3611743450164795,0.3567086458206177
1715114111558162700,3.90716259765625,-0.8488340377807617,-1.7334346771240234,-0.560200035572052
1715114111568113000,3.91711279296875,-2.056171417236328,-1.922386884689331,-1.2097609043121338
1715114111578062800,3.927062744140625,-2.5801072120666504,-1.8881504535675049,-1.49175226688385
1715114111588013000,3.937012939453125,-2.3219680786132812,-1.7380399703979492,-1.2684077024459839
1715114111597963000,3.946962890625,-1.5776920318603516,-1.676734447479248,-0.7321113348007202
1715114111607913200,3.956913330078125,-0.5694160461425781,-1.7999036312103271,-0.25354743003845215
1715114111617863200,3.96686328125,0.48691654205322266,-2.0185093879699707,0.07625269889831543
1715114111627813400,3.9768134765625,1.2177858352661133,-2.2911276817321777,0.24915847182273865
1715114111637763300,3.986763427734375,1.4589242935180664,-2.487511157989502,0.2911703586578369
1715114111647713500,3.996713623046875,1.40850830078125,-2.5483601093292236,0.2716250419616699
1715114111657663700,4.006663818359375,1.0009689331054688,-2.5666027069091797,0.16432088613510132
1715114111667613700,4.01661376953125,0.27564334869384766,-2.577040195465088,-0.12940901517868042
1715114111677564000,4.02656396484375,-0.6422710418701172,-2.5189075469970703,-0.3968498408794403
1715114111687513900,4.036513916015625,-1.7237110137939453,-2.3931262493133545,-0.5376462936401367
1715114111697464000,4.046464111328125,-2.8786425590515137,-2.2650070190429688,-0.6172420978546143
1715114111707414300,4.056414306640625,-3.879162311553955,-2.098329544067383,-0.5274052619934082
1715114111717364200,4.0663642578125,-4.660040855407715,-1.8906519412994385,-0.32868051528930664
1715114111727314400,4.076314453125,-5.199310302734375,-1.6818852424621582,-0.07413443922996521
1715114111737264400,4.086264404296875,-5.527673721313477,-1.3823022842407227,0.3158891201019287
1715114111747214600,4.096214599609375,-5.575225830078125,-0.9696624279022217,0.8374638557434082
1715114111757164800,4.106164794921875,-5.261603355407715,-0.5245015621185303,1.3459296226501465
1715114111767114800,4.11611474609375,-5.055525779724121,-0.1667017936706543,1.4695731401443481
1715114111777065000,4.12606494140625,-5.062594413757324,0.23436975479125977,1.1233935356140137
1715114111787015000,4.136014892578125,-4.949090480804443,0.6042733192443848,0.6961869597434998
1715114111796965000,4.145965087890625,-4.586644649505615,0.886049747467041,0.37674862146377563
1715114111806915000,4.1559150390625,-4.004637241363525,1.2996926307678223,0.10616248846054077
1715114111816865300,4.165865234375,-3.2850465774536133,1.8312110900878906,0.07619433850049973
1715114111826815500,4.1758154296875,-2.342471122741699,2.228250026702881,0.23098577558994293
1715114111836765400,4.185765380859375,-1.3396825790405273,2.5821967124938965,0.32730692625045776
1715114111846715600,4.195715576171875,-0.037349700927734375,2.8400168418884277,0.37922608852386475
1715114111856665600,4.20566552734375,1.7281742095947266,2.9123153686523438,0.6586761474609375
1715114111866615800,4.21561572265625,3.6200389862060547,2.787199020385742,1.0187082290649414
1715114111876566000,4.22556591796875,5.216109275817871,2.562260627746582,1.2809860706329346
1715114111886516000,4.235515869140625,6.499749183654785,2.294858455657959,1.3963111639022827
1715114111896466200,4.245466064453125,7.2761640548706055,1.8920903205871582,1.2907023429870605
1715114111906416000,4.255416015625,7.468523979187012,1.422931432723999,0.8311502933502197
1715114111916366000,4.265365966796875,7.195354461669922,1.024956464767456,-0.04459190368652344
1715114111926316300,4.27531640625,6.572142601013184,0.8091588020324707,-1.1782536506652832
1715114111936266200,4.285266357421875,5.448138236999512,0.7602124214172363,-1.8150169849395752
1715114111946216400,4.295216552734375,4.111340522766113,0.8363809585571289,-1.7839782238006592
1715114111956166400,4.30516650390625,2.9487619400024414,1.0489368438720703,-1.4301040172576904
1715114111966116400,4.315116455078125,1.7343111038208008,1.3436226844787598,-0.9669181108474731
1715114111976066600,4.325066650390625,0.6807899475097656,1.7068748474121094,-0.24750089645385742
1715114111986016500,4.3350166015625,0.12404537200927734,1.8392281532287598,0.5771156549453735
1715114111995966700,4.344966796875,0.3612194061279297,1.4829325675964355,0.8891382217407227
1715114112005916700,4.354916748046875,1.0932588577270508,0.6584148406982422,0.637677788734436
1715114112015866600,4.36486669921875,1.8180484771728516,-0.2490220069885254,0.22756332159042358
1715114112025816800,4.37481689453125,2.3025379180908203,-1.2565603256225586,-0.1217951774597168
1715114112035766800,4.384766845703125,2.514474868774414,-2.1268351078033447,-0.3036251366138458
1715114112045716700,4.394716796875,2.3880786895751953,-2.703240394592285,-0.34783872961997986
1715114112055667000,4.4046669921875,2.015252113342285,-3.0005943775177,-0.26367413997650146
1715114112065617000,4.414616943359375,1.6892814636230469,-3.0355043411254883,-0.09666743874549866
1715114112075567000,4.424567138671875,1.4365882873535156,-2.994807243347168,0.06285423040390015
1715114112085517000,4.43451708984375,1.0874700546264648,-2.9505391120910645,0.09881719946861267
1715114112095467000,4.444467041015625,0.49527645111083984,-2.809934377670288,0.11399009823799133
1715114112105417200,4.454417236328125,-0.3257617950439453,-2.5480313301086426,0.27127504348754883
1715114112115367200,4.4643671875,-0.9183063507080078,-2.1711249351501465,0.6077501177787781
1715114112125317400,4.4743173828125,-1.1210260391235352,-1.827235460281372,0.9913641214370728
1715114112135267300,4.484267333984375,-1.2972793579101562,-1.6139531135559082,1.150839924812317
1715114112145217300,4.49421728515625,-1.8001213073730469,-1.4367749691009521,1.113263487815857
1715114112155167500,4.50416748046875,-2.3758649826049805,-1.27579665184021,1.085227608680725
1715114112165117400,4.514117431640625,-2.9625582695007324,-1.2686843872070312,1.101978063583374
1715114112175067600,4.524067626953125,-3.6033124923706055,-1.3044493198394775,1.019776463508606
1715114112185017600,4.534017578125,-4.259771347045898,-1.3106393814086914,0.8401991128921509
1715114112194967600,4.543967529296875,-4.788126468658447,-1.325852394104004,0.6963722705841064
1715114112204917800,4.553917724609375,-5.307767868041992,-1.335935115814209,0.5052439570426941
1715114112214867700,4.56386767578125,-5.852925777435303,-1.1861255168914795,0.2711556851863861
1715114112224818000,4.57381787109375,-6.329530715942383,-0.9356751441955566,0.1006765067577362
1715114112234768000,4.583767822265625,-6.486721038818359,-0.6283562183380127,0.013012394309043884
1715114112244717800,4.5937177734375,-6.235747337341309,-0.46285533905029297,0.03317056596279144
1715114112254668000,4.60366796875,-6.00398063659668,-0.3459043502807617,-0.08056853711605072
1715114112264618000,4.613617919921875,-5.587170124053955,-0.041161537170410156,-0.21506930887699127
1715114112274568000,4.62356787109375,-4.91364049911499,0.32083749771118164,-0.22378455102443695
1715114112284518100,4.63351806640625,-4.040098190307617,0.6275601387023926,-0.19243989884853363
1715114112294468000,4.643468017578125,-3.0895891189575195,0.9427142143249512,-0.20181331038475037
1715114112304418300,4.653418212890625,-2.1467790603637695,1.2442560195922852,-0.23002803325653076
1715114112314368300,4.6633681640625,-1.1153335571289062,1.49739408493042,-0.22757002711296082
1715114112324318200,4.673318115234375,-0.00043487548828125,1.7744388580322266,-0.027257919311523438
1715114112334268400,4.683268310546875,1.335331916809082,2.0481886863708496,0.4076380729675293
1715114112344218400,4.69321826171875,2.724498748779297,2.226440906524658,0.943284273147583
1715114112354168600,4.70316845703125,4.006373405456543,2.3860020637512207,1.2763657569885254
1715114112364118500,4.713118408203125,4.911057472229004,2.4077224731445312,1.2837228775024414
1715114112374068500,4.723068359375,5.345293998718262,2.3037939071655273,1.1324800252914429
1715114112384018700,4.733018798828125,5.062359809875488,2.1460213661193848,0.8383141756057739
1715114112393968600,4.74296875,4.27338981628418,2.0424375534057617,0.4647483825683594
1715114112403918800,4.7529189453125,3.4940595626831055,1.9727239608764648,0.03198537603020668
1715114112413868800,4.762868896484375,2.8381080627441406,1.8957743644714355,-0.4872647225856781
1715114112423818800,4.77281884765625,2.046603202819824,2.0802807807922363,-1.1916732788085938
1715114112433769000,4.78276904296875,1.199681282043457,2.474942684173584,-1.8088685274124146
1715114112443719000,4.792718994140625,0.5571212768554688,2.7211031913757324,-1.6217671632766724
1715114112453669000,4.802669189453125,0.6938209533691406,2.7999982833862305,-0.7239458560943604
1715114112463619000,4.812619140625,1.8129816055297852,2.7993345260620117,0.565604567527771
1715114112473569000,4.822569091796875,3.5277910232543945,2.5388903617858887,1.8536015748977661
1715114112483519200,4.832519287109375,5.171664237976074,2.0698437690734863,2.6793711185455322
1715114112493469200,4.84246923828125,6.046047210693359,1.3946943283081055,2.7825419902801514
1715114112503419100,4.852419189453125,5.871596336364746,0.39718151092529297,2.0775554180145264
1715114112513369300,4.862369384765625,4.931024551391602,-0.6992001533508301,0.6920088529586792
1715114112523319300,4.8723193359375,3.629757881164551,-1.5496885776519775,-0.896152913570404
1715114112533269500,4.88226953125,2.2153072357177734,-2.0645434856414795,-2.285712718963623
1715114112543219500,4.892219482421875,0.7529706954956055,-2.231074333190918,-3.1327733993530273
1715114112553169400,4.90216943359375,-0.4971189498901367,-2.1313564777374268,-3.280635118484497
1715114112563119600,4.91211962890625,-1.093501091003418,-1.8578619956970215,-2.638923406600952
1715114112573069600,4.922069580078125,-0.8124589920043945,-1.6753697395324707,-1.5589416027069092
1715114112583019800,4.932019775390625,0.11818981170654297,-1.6713271141052246,-0.4910653233528137
1715114112592969700,4.9419697265625,1.1474008560180664,-1.734304428100586,0.3681108057498932
1715114112602919700,4.951919677734375,1.8196916580200195,-1.8943989276885986,0.9257706999778748
1715114112612870000,4.961869873046875,2.01267147064209,-2.18719744682312,1.1299692392349243
1715114112622819800,4.97181982421875,1.6980247497558594,-2.4349818229675293,1.0893123149871826
1715114112632770000,4.98177001953125,0.9858112335205078,-2.60786771774292,0.7867324352264404
1715114112642720000,4.991719970703125,0.00040435791015625,-2.795177459716797,0.29360830783843994
1715114112652670000,5.001669921875,-1.0183601379394531,-2.930037498474121,-0.23887190222740173
1715114112662620200,5.0116201171875,-2.0168089866638184,-2.947080612182617,-0.655190646648407
1715114112672570000,5.021570068359375,-2.965707302093506,-2.8809919357299805,-0.9442560076713562
1715114112682520300,5.031520263671875,-3.860405445098877,-2.813356876373291,-1.0109831094741821
1715114112692470300,5.04147021484375,-4.720992565155029,-2.637752056121826,-0.8767058253288269
1715114112702420200,5.051420166015625,-5.286259651184082,-2.2897322177886963,-0.3865540325641632
1715114112712370400,5.061370361328125,-5.433265686035156,-1.9691991806030273,0.35800307989120483
1715114112722320400,5.0713203125,-5.602829456329346,-1.727602481842041,0.7676811218261719
1715114112732270300,5.081270263671875,-5.858539581298828,-1.394249677658081,0.6342897415161133
1715114112742220500,5.091220458984375,-6.125927925109863,-1.027179479598999,0.34324541687965393
1715114112752170500,5.10117041015625,-6.287981986999512,-0.6075291633605957,0.13492344319820404
1715114112762120400,5.111120361328125,-6.060193061828613,-0.22283506393432617,0.007975530810654163
1715114112772070400,5.1210703125,-5.573359966278076,0.08075904846191406,0.004443978890776634
1715114112782020400,5.131020263671875,-5.057879447937012,0.7391152381896973,0.05578067898750305
1715114112791970600,5.140970458984375,-3.9833898544311523,1.4024910926818848,0.4327426254749298
1715114112801920500,5.15092041015625,-2.442884922027588,1.800795555114746,0.9854379892349243
1715114112811870500,5.160870361328125,-1.2643041610717773,2.1268553733825684,0.8689293265342712
1715114112821820400,5.1708203125,-0.4022560119628906,2.3586764335632324,0.1656467616558075
1715114112831770400,5.180770263671875,0.39197254180908203,2.449716567993164,-0.2071094810962677
1715114112841720600,5.190720458984375,1.3229408264160156,2.507814407348633,-0.2631909251213074
1715114112851670500,5.20067041015625,2.714855194091797,2.4958043098449707,-0.059467434883117676
1715114112861620500,5.210620361328125,4.333246231079102,2.2881293296813965,0.4146156311035156
1715114112871570400,5.2205703125,5.925353050231934,1.9778242111206055,0.839030921459198
1715114112881520400,5.230520263671875,7.257729530334473,1.5718212127685547,0.9958819150924683
1715114112891470300,5.24047021484375,8.189507484436035,1.1032280921936035,0.5817270278930664
1715114112901420500,5.250420654296875,8.180087089538574,0.7810521125793457,-0.4013764560222626
1715114112911370500,5.26037060546875,7.028290748596191,0.6120414733886719,-1.2895889282226562
1715114112921320400,5.270320556640625,5.213637351989746,0.699735164642334,-1.613927960395813
1715114112931270400,5.2802705078125,3.5762319564819336,0.9818811416625977,-1.572930932044983
1715114112941220400,5.290220458984375,2.156400680541992,1.204615592956543,-1.314699411392212
1715114112951170600,5.300170654296875,0.9272661209106445,1.3775277137756348,-0.9794334769248962
1715114112961120500,5.31012060546875,-0.11013507843017578,1.373518943786621,-0.5257165431976318
1715114112971070500,5.320070556640625,-0.6539306640625,1.085404396057129,-0.2075040340423584
1715114112981020400,5.3300205078125,-0.621551513671875,0.5472955703735352,-0.1753007173538208
1715114112990970400,5.339970458984375,-0.024588584899902344,-0.10016870498657227,-0.07038553059101105
1715114113000920600,5.349920654296875,0.9362106323242188,-0.8972792625427246,0.4633866250514984
1715114113010870500,5.35987060546875,2.1765384674072266,-1.8439526557922363,1.063880443572998
1715114113020820500,5.369820556640625,3.125504493713379,-2.640387535095215,1.3689672946929932
1715114113030770400,5.3797705078125,3.4892749786376953,-3.0229954719543457,1.453250765800476
1715114113040720400,5.389720458984375,3.6039953231811523,-3.1465086936950684,1.595625638961792
1715114113050670600,5.399670654296875,3.7102460861206055,-3.2006213665008545,1.8051923513412476
1715114113060620500,5.40962060546875,3.590582847595215,-3.152710199356079,1.9106411933898926
1715114113070570800,5.41957080078125,2.989882469177246,-2.903430938720703,1.8598967790603638
1715114113080520700,5.429520751953125,2.0058364868164062,-2.470120668411255,1.7998201847076416
1715114113090470700,5.439470703125,0.8635053634643555,-2.062560558319092,1.7943059206008911
1715114113100420900,5.4494208984375,-0.4233207702636719,-1.7595810890197754,1.7170681953430176
1715114113110370800,5.459370849609375,-1.6740083694458008,-1.4480078220367432,1.6660083532333374
1715114113120321000,5.469321044921875,-2.780078887939453,-1.1820993423461914,1.7526007890701294
1715114113130271000,5.47927099609375,-3.585268974304199,-1.045210838317871,1.8919063806533813
1715114113140221000,5.489220947265625,-4.248732566833496,-0.9823787212371826,1.939350962638855
1715114113150171100,5.499171142578125,-4.795356273651123,-0.9725439548492432,1.841094970703125
1715114113160121000,5.50912109375,-5.273597717285156,-0.9621031284332275,1.6733312606811523
1715114113170071300,5.5190712890625,-5.602633476257324,-1.01759934425354,1.5106881856918335
1715114113180021200,5.529021240234375,-5.835444927215576,-1.11020827293396,1.2084802389144897
1715114113189971200,5.53897119140625,-5.986795425415039,-1.1154897212982178,0.8125845789909363
1715114113199921400,5.54892138671875,-6.042726516723633,-1.0766017436981201,0.464287668466568
1715114113209871400,5.558871337890625,-5.979583740234375,-0.9509005546569824,0.31055188179016113
1715114113219821600,5.568821533203125,-5.998702049255371,-0.7138416767120361,0.2658854126930237
1715114113229771500,5.578771484375,-5.910345077514648,-0.3959507942199707,0.14532294869422913
1715114113239721500,5.588721435546875,-5.539037227630615,-0.11957359313964844,-0.08710002899169922
1715114113249671700,5.598671630859375,-5.029030799865723,0.18253326416015625,-0.3266814649105072
1715114113259621600,5.60862158203125,-4.40479040145874,0.5344629287719727,-0.4356113076210022
1715114113269571600,5.618571533203125,-3.9353580474853516,0.8958315849304199,-0.29688897728919983
1715114113279521800,5.628521728515625,-3.517744541168213,1.2957963943481445,-0.04594239592552185
1715114113289471700,5.6384716796875,-2.704648494720459,1.776616096496582,0.1580274999141693
1715114113299422000,5.648421875,-1.2811088562011719,2.184006690979004,0.4519948959350586
1715114113309372000,5.658371826171875,0.8219518661499023,2.3537473678588867,0.7703906893730164
1715114113319321900,5.66832177734375,3.054798126220703,2.2937536239624023,0.8095274567604065
1715114113329272000,5.67827197265625,4.89705753326416,2.1270203590393066,0.45962563157081604
1715114113339222000,5.688221923828125,5.975895881652832,1.8603177070617676,-0.04466325044631958
1715114113349172200,5.698172119140625,6.050131797790527,1.5737767219543457,-0.8042890429496765
1715114113359122200,5.7081220703125,5.550395965576172,1.366403579711914,-1.5887451171875
1715114113369072000,5.718072021484375,4.934378623962402,1.218493938446045,-2.049805164337158
1715114113379022300,5.728022216796875,4.3390092849731445,1.1045470237731934,-2.1739633083343506
1715114113388972300,5.73797216796875,4.030671119689941,1.1832408905029297,-2.057669162750244
1715114113398922500,5.747922607421875,3.833003044128418,1.4076600074768066,-1.996980905532837
1715114113408872400,5.75787255859375,3.196629524230957,1.7608661651611328,-1.9560033082962036
1715114113418822400,5.767822509765625,2.178079605102539,2.3223156929016113,-1.564711093902588
1715114113428772600,5.777772705078125,0.8791360855102539,2.8904008865356445,-0.8516498804092407
1715114113438722600,5.78772265625,-0.18421077728271484,3.357208728790283,-0.20068073272705078
1715114113448672800,5.7976728515625,-0.6500177383422852,3.4814162254333496,0.4435371160507202
1715114113458622700,5.807622802734375,-0.10199451446533203,3.2083559036254883,1.052961826324463
1715114113468572700,5.81757275390625,1.6416988372802734,2.6254191398620605,1.5488799810409546
1715114113478523000,5.82752294921875,3.9603424072265625,1.6804704666137695,1.8061527013778687
1715114113488472800,5.837472900390625,5.878623962402344,0.4891629219055176,1.4939749240875244
1715114113498422800,5.8474228515625,6.272248268127441,-0.7413382530212402,0.4229937791824341
1715114113508373000,5.857373046875,4.996232032775879,-1.6852178573608398,-1.030922293663025
1715114113518323000,5.867322998046875,2.8702831268310547,-2.2554917335510254,-2.2738466262817383
1715114113528273200,5.877273193359375,0.6910676956176758,-2.5251224040985107,-2.9309277534484863
1715114113538223000,5.88722314453125,-1.0418014526367188,-2.4317774772644043,-2.9751105308532715
1715114113548173000,5.897173095703125,-2.1240997314453125,-2.093950033187866,-2.4931817054748535
1715114113558123300,5.907123291015625,-2.1395320892333984,-1.7334671020507812,-1.4912621974945068
1715114113568073200,5.9170732421875,-1.040297508239746,-1.6551592350006104,-0.2303638458251953
1715114113578023400,5.9270234375,0.5612831115722656,-1.8256168365478516,0.6646363735198975
1715114113587973400,5.936973388671875,2.011929512023926,-2.1551461219787598,1.0077439546585083
1715114113597923300,5.94692333984375,2.786985397338867,-2.5892210006713867,1.0311713218688965
1715114113607873500,5.95687353515625,2.60345458984375,-2.9724178314208984,0.8943865299224854
1715114113617823500,5.966823486328125,1.6777410507202148,-3.2312369346618652,0.49279844760894775
1715114113627773700,5.976773681640625,0.49701499938964844,-3.4439468383789062,0.00789177417755127
1715114113637723600,5.9867236328125,-0.6383209228515625,-3.5090513229370117,-0.2694953680038452
1715114113647673600,5.996673583984375,-1.6091656684875488,-3.3466837406158447,-0.18566882610321045
1715114113657623800,6.006623779296875,-2.5112905502319336,-3.0739479064941406,0.09670329093933105
1715114113667573800,6.01657373046875,-3.421637535095215,-2.7587456703186035,0.44512251019477844
1715114113677524000,6.02652392578125,-4.23586368560791,-2.4480912685394287,0.8221241235733032
1715114113687474000,6.036473876953125,-5.055753707885742,-2.168069362640381,1.155470848083496
1715114113697424000,6.046423828125,-5.787761688232422,-1.8425359725952148,1.3796889781951904
1715114113707374000,6.0563740234375,-6.300556182861328,-1.442669153213501,1.622644066810608
1715114113717324000,6.066323974609375,-6.567887783050537,-1.0217368602752686,1.8354449272155762
1715114113727274000,6.07627392578125,-6.539002895355225,-0.5531997680664062,1.9596471786499023
1715114113737224200,6.08622412109375,-6.315290451049805,-0.13156604766845703,2.047667980194092
1715114113747174100,6.096174072265625,-6.045900344848633,0.33074188232421875,2.113309144973755
1715114113757124400,6.106124267578125,-5.717374801635742,0.8348960876464844,2.1566362380981445
1715114113767074300,6.11607421875,-5.076746940612793,1.2899365425109863,2.1282503604888916
1715114113777024300,6.126024169921875,-4.113999366760254,1.6552152633666992,1.9197173118591309
1715114113786974500,6.135974365234375,-2.8993635177612305,1.9501051902770996,1.5434406995773315
1715114113796924400,6.14592431640625,-1.5690827369689941,2.2500410079956055,1.1320788860321045
1715114113806874400,6.155874267578125,-0.6233997344970703,2.4421305656433105,0.8258591890335083
1715114113816824300,6.16582421875,0.2154369354248047,2.537224769592285,0.5485747456550598
1715114113826774500,6.1757744140625,1.1142349243164062,2.609337329864502,0.49410706758499146
1715114113836724500,6.185724365234375,2.3970537185668945,2.627224922180176,0.657846987247467
1715114113846674400,6.19567431640625,4.049553871154785,2.5754265785217285,0.9932157397270203
1715114113856624400,6.205624267578125,5.57562255859375,2.3598737716674805,1.4018341302871704
1715114113866574300,6.21557421875,6.714511871337891,2.0863490104675293,1.457679033279419
1715114113876524300,6.225524169921875,7.411425590515137,1.6932244300842285,0.9926644563674927
1715114113886474500,6.235474609375,7.6116838455200195,1.2245559692382812,0.19862990081310272
1715114113896424400,6.245424560546875,7.131856918334961,0.9158024787902832,-0.8481043577194214
1715114113906374400,6.25537451171875,5.965082168579102,0.9462394714355469,-1.6781141757965088
1715114113916324400,6.265324462890625,4.255441665649414,1.1691346168518066,-1.897026538848877
1715114113926274300,6.2752744140625,2.4833669662475586,1.4144511222839355,-1.6696208715438843
1715114113936224500,6.285224609375,1.1036224365234375,1.6284103393554688,-1.2140508890151978
1715114113946174500,6.295174560546875,0.1029520034790039,1.7595529556274414,-0.6489385366439819
1715114113956124400,6.30512451171875,-0.5460367202758789,1.7036566734313965,-0.05797248333692551
1715114113966074400,6.315074462890625,-0.5979804992675781,1.327207088470459,0.32634538412094116
1715114113976024300,6.3250244140625,0.10771846771240234,0.6603093147277832,0.37663474678993225
1715114113985974500,6.334974609375,1.1458673477172852,-0.13780927658081055,0.1643647998571396
1715114113995924500,6.344924560546875,1.878133773803711,-0.9528636932373047,-0.17233778536319733
1715114114005874400,6.35487451171875,2.0436201095581055,-1.8539421558380127,-0.651784360408783
1715114114015824400,6.364824462890625,1.6999092102050781,-2.6186575889587402,-1.209011197090149
1715114114025774300,6.3747744140625,1.1943845748901367,-2.9885454177856445,-1.534635305404663
1715114114035724300,6.384724365234375,1.2232818603515625,-3.042127847671509,-1.3296009302139282
1715114114045674500,6.394674560546875,2.016674041748047,-3.0230958461761475,-0.672626256942749
1715114114055624400,6.40462451171875,2.9323854446411133,-3.0128862857818604,-0.08445858955383301
1715114114065574400,6.414574462890625,3.458261489868164,-2.987056255340576,0.21242959797382355
1715114114075524400,6.4245244140625,3.2767200469970703,-2.9206368923187256,0.2806118130683899
1715114114085474300,6.434474365234375,2.4606752395629883,-2.722090721130371,0.1719781905412674
1715114114095424500,6.444424560546875,1.4067907333374023,-2.336125135421753,0.0917627364397049
1715114114105374500,6.45437451171875,0.48763179779052734,-1.986295223236084,0.11919218301773071
1715114114115324400,6.464324462890625,-0.24886798858642578,-1.7310020923614502,0.28953051567077637
1715114114125274400,6.4742744140625,-1.084568977355957,-1.4804096221923828,0.545057475566864
1715114114135224300,6.484224365234375,-1.8234715461730957,-1.2345845699310303,0.8151572942733765
1715114114145174500,6.494174560546875,-2.3653621673583984,-1.127690315246582,1.0702699422836304
1715114114155124500,6.50412451171875,-2.8679375648498535,-1.0789828300476074,1.2158098220825195
1715114114165074400,6.514074462890625,-3.464944839477539,-1.0310847759246826,1.3132418394088745
1715114114175024400,6.5240244140625,-4.036942958831787,-1.0214488506317139,1.47721266746521
1715114114184974300,6.533974365234375,-4.675570011138916,-1.0334036350250244,1.6318540573120117
1715114114194924300,6.54392431640625,-5.243490219116211,-0.948859691619873,1.6974928379058838
1715114114204874500,6.55387451171875,-5.708909511566162,-0.759840726852417,1.747389793395996
1715114114214824400,6.563824462890625,-6.063943862915039,-0.5208239555358887,1.787677526473999
1715114114224774400,6.5737744140625,-6.358428001403809,-0.21854639053344727,1.7684775590896606
1715114114234724400,6.583724365234375,-6.5225958824157715,0.1216592788696289,1.6732311248779297
1715114114244674600,6.593674560546875,-6.452915668487549,0.49706125259399414,1.545395016670227
1715114114254624500,6.60362451171875,-6.198060035705566,0.8313074111938477,1.40748131275177
1715114114264574500,6.613574462890625,-5.911675453186035,1.1148009300231934,1.217132568359375
1715114114274524700,6.623524658203125,-5.484830379486084,1.3722190856933594,1.0551800727844238
1715114114284474600,6.633474609375,-4.779867172241211,1.5368328094482422,0.9262970685958862
1715114114294424800,6.6434248046875,-3.605821132659912,1.602431297302246,0.7177111506462097
1715114114304374800,6.653374755859375,-2.057896614074707,1.7335267066955566,0.6342777013778687
1715114114314324700,6.66332470703125,-0.2826499938964844,1.8304767608642578,0.8372491598129272
1715114114324275000,6.67327490234375,1.4784345626831055,1.818112850189209,1.0778353214263916
1715114114334225000,6.683224853515625,3.0887670516967773,1.7423529624938965,1.0564444065093994
1715114114344175000,6.693175048828125,4.411974906921387,1.486739158630371,0.7513043284416199
1715114114354125000,6.703125,5.158443450927734,1.1512203216552734,0.17973452806472778
1715114114364075000,6.713074951171875,5.391623497009277,0.9514989852905273,-0.6884345412254333
1715114114374025200,6.723025146484375,5.38468074798584,0.8489885330200195,-1.523407220840454
1715114114383975200,6.73297509765625,5.544458389282227,0.7553739547729492,-2.2265424728393555
1715114114393925000,6.742925048828125,5.810293197631836,0.8652153015136719,-2.8173210620880127
1715114114403875300,6.752875244140625,5.55721378326416,1.3482275009155273,-3.0339388847351074
1715114114413825300,6.7628251953125,4.808587074279785,2.0298385620117188,-2.7123048305511475
1715114114423775500,6.772775390625,3.805270195007324,2.5946598052978516,-2.054062604904175
1715114114433725400,6.782725341796875,3.174384117126465,2.927826404571533,-1.2644232511520386
1715114114443675400,6.79267529296875,3.2433176040649414,2.8606204986572266,-0.5019975900650024
1715114114453625600,6.80262548828125,3.806386947631836,2.587472438812256,0.11667758226394653
1715114114463575600,6.812575439453125,4.688950538635254,2.17763090133667,0.6403294801712036
1715114114473525800,6.82252587890625,5.297238349914551,1.4927220344543457,1.0386621952056885
1715114114483475700,6.832475830078125,4.860064506530762,0.6839756965637207,0.9377273321151733
1715114114493425700,6.84242578125,3.421126365661621,0.003025054931640625,0.24295425415039062
1715114114503376000,6.8523759765625,1.6134576797485352,-0.46203184127807617,-0.5470846891403198
1715114114513325800,6.862325927734375,-0.12760543823242188,-0.7232084274291992,-1.088285207748413
1715114114523276000,6.872276123046875,-1.4865155220031738,-0.9372849464416504,-1.5478882789611816
1715114114533226000,6.88222607421875,-2.21811580657959,-1.0641541481018066,-1.8455216884613037
1715114114543176000,6.892176025390625,-2.4480795860290527,-1.134634256362915,-1.8470263481140137
1715114114553126100,6.902126220703125,-2.2436609268188477,-1.203953504562378,-1.5253101587295532
1715114114563076000,6.912076171875,-1.6944003105163574,-1.4280295372009277,-1.0635273456573486
1715114114573026300,6.9220263671875,-1.0419836044311523,-1.8569908142089844,-0.6764301061630249
1715114114582976300,6.931976318359375,-0.43633460998535156,-2.217339038848877,-0.44118475914001465
1715114114592926200,6.94192626953125,-0.03242015838623047,-2.512943983078003,-0.2079823613166809
1715114114602876400,6.95187646484375,0.10527229309082031,-2.7039241790771484,0.03293341398239136
1715114114612826400,6.961826416015625,0.10285091400146484,-2.8928561210632324,0.10902541875839233
1715114114622776300,6.9717763671875,-0.0854949951171875,-3.0638580322265625,0.0026031136512756348
1715114114632726500,6.9817265625,-0.5629816055297852,-3.1061296463012695,-0.16649335622787476
1715114114642676500,6.991676513671875,-1.3662872314453125,-3.033266544342041,-0.2794235944747925
1715114114652626700,7.001626708984375,-2.4572410583496094,-2.9318790435791016,-0.312311053276062
1715114114662576600,7.01157666015625,-3.632236957550049,-2.803093433380127,-0.3619503974914551
1715114114672526600,7.021526611328125,-4.497085094451904,-2.6427133083343506,-0.3121384382247925
1715114114682476500,7.0314765625,-4.98231315612793,-2.3957161903381348,-0.026072382926940918
1715114114692426500,7.041426513671875,-5.179847717285156,-2.0658693313598633,0.4604886770248413
1715114114702376700,7.051376708984375,-5.272041320800781,-1.7614963054656982,0.9479708671569824
1715114114712326700,7.06132666015625,-5.374062538146973,-1.4278626441955566,1.324476718902588
1715114114722276600,7.071276611328125,-5.5824971199035645,-0.99053955078125,1.488929033279419
1715114114732226600,7.0812265625,-5.736083030700684,-0.49970245361328125,1.5271334648132324
1715114114742176500,7.091176513671875,-5.6545939445495605,0.031826019287109375,1.4596822261810303
1715114114752126700,7.101126708984375,-5.3583879470825195,0.5995206832885742,1.31858229637146
1715114114762076700,7.11107666015625,-4.872673988342285,1.2997798919677734,1.2890141010284424
1715114114772026600,7.121026611328125,-3.9638633728027344,1.8654608726501465,1.309450387954712
1715114114781976600,7.1309765625,-2.7804083824157715,2.2252449989318848,1.2225555181503296
1715114114791926500,7.140926513671875,-1.4122276306152344,2.511430263519287,1.0196532011032104
1715114114801876500,7.15087646484375,-0.11116600036621094,2.639899730682373,0.9905827045440674
1715114114811826700,7.16082666015625,0.9570484161376953,2.7564425468444824,0.9237194061279297
1715114114821776600,7.170776611328125,1.9844379425048828,2.984321117401123,0.8920401930809021
1715114114831726600,7.1807265625,3.2249326705932617,3.126096248626709,1.0567994117736816
1715114114841676500,7.190676513671875,4.627327919006348,3.1302237510681152,1.1714149713516235
1715114114851626500,7.20062646484375,5.992718696594238,2.9490692615509033,1.12250816822052
1715114114861576700,7.21057666015625,7.065406799316406,2.6827478408813477,0.865380585193634
1715114114871526700,7.220526611328125,7.498387336730957,2.33809232711792,0.3177849054336548
1715114114881476600,7.2304765625,7.574712753295898,1.934385061264038,-0.24654239416122437
1715114114891426600,7.240426513671875,7.534025192260742,1.4710009098052979,-0.7061653733253479
1715114114901376500,7.25037646484375,7.315852165222168,1.0734789371490479,-1.188252329826355
1715114114911326700,7.26032666015625,6.176883697509766,0.9207186698913574,-1.7137267589569092
1715114114921276700,7.270276611328125,4.0847978591918945,1.1791596412658691,-2.0149097442626953
1715114114931226600,7.2802265625,1.6448898315429688,1.6097750663757324,-1.7776457071304321
1715114114941176600,7.290176513671875,-0.15762901306152344,1.8171029090881348,-1.3452394008636475
1715114114951126500,7.30012646484375,-1.0307340621948242,1.9651055335998535,-0.9352569580078125
1715114114961076500,7.310076416015625,-1.4220666885375977,1.9419670104980469,-0.5890370011329651
1715114114971026700,7.320026611328125,-1.3580589294433594,1.6075568199157715,-0.24903973937034607
1715114114980976600,7.3299765625,-0.6547698974609375,0.935208797454834,0.014351725578308105
1715114114990926600,7.339926513671875,0.6583995819091797,0.20862817764282227,0.1115715503692627
1715114115000876500,7.34987646484375,1.822535514831543,-0.48319578170776367,0.05288726091384888
1715114115010826500,7.359826416015625,2.3181724548339844,-1.1583752632141113,-0.0651170015335083
1715114115020776700,7.369776611328125,2.1552486419677734,-1.7967615127563477,-0.3356637954711914
1715114115030726700,7.3797265625,1.5988960266113281,-2.233783721923828,-0.5336976051330566
1715114115040676600,7.389676513671875,1.1714191436767578,-2.472153902053833,-0.3666924834251404
1715114115050626600,7.39962646484375,1.0295047760009766,-2.5200603008270264,0.0670628547668457
1715114115060576500,7.409576416015625,1.2004375457763672,-2.4504711627960205,0.5150113701820374
1715114115070526700,7.419526611328125,1.340327262878418,-2.434621572494507,0.7908596396446228
1715114115080476700,7.4294765625,1.1665802001953125,-2.483767509460449,0.7268505692481995
1715114115090426600,7.439426513671875,0.7386560440063477,-2.4092469215393066,0.44117993116378784
1715114115100376600,7.44937646484375,0.18157672882080078,-2.2646706104278564,0.18345719575881958
1715114115110326500,7.459326416015625,-0.4471111297607422,-2.126906633377075,-0.0303458571434021
1715114115120276500,7.4692763671875,-1.0226068496704102,-2.0113401412963867,-0.14267459511756897
1715114115130226700,7.479226806640625,-1.5967483520507812,-1.9196386337280273,-0.12110736966133118
1715114115140176600,7.4891767578125,-2.2788591384887695,-1.8335037231445312,-0.11660757660865784
1715114115150126600,7.499126708984375,-2.987208843231201,-1.7387402057647705,-0.06138253211975098
1715114115160076500,7.50907666015625,-3.6547770500183105,-1.5826878547668457,0.18435317277908325
1715114115170026500,7.519026611328125,-4.320321083068848,-1.474492073059082,0.5924949049949646
1715114115179976700,7.528976806640625,-4.980534553527832,-1.3921000957489014,0.9799002408981323
1715114115189926700,7.5389267578125,-5.627572536468506,-1.3036010265350342,1.1983776092529297
1715114115199876600,7.548876708984375,-6.320830345153809,-1.209784984588623,1.2121315002441406
1715114115209826600,7.55882666015625,-6.981550216674805,-1.062720537185669,1.0647995471954346
1715114115219776500,7.568776611328125,-7.326204776763916,-0.8714640140533447,0.7873743176460266
1715114115229726700,7.578726806640625,-7.127738952636719,-0.6911931037902832,0.5123429298400879
1715114115239676700,7.5886767578125,-6.73526668548584,-0.5333218574523926,0.20154151320457458
1715114115249626600,7.598626708984375,-6.329570770263672,-0.27086400985717773,-0.20132142305374146
1715114115259576600,7.60857666015625,-5.76206111907959,0.028290271759033203,-0.5052345991134644
1715114115269526500,7.618526611328125,-4.989697456359863,0.39673948287963867,-0.5652387738227844
1715114115279476500,7.6284765625,-4.098173141479492,0.8664002418518066,-0.7071508169174194
1715114115289426700,7.6384267578125,-3.1198806762695312,1.2770171165466309,-0.7034338712692261
1715114115299376600,7.648376708984375,-2.135486602783203,1.6799960136413574,-0.4621516466140747
1715114115309326600,7.65832666015625,-0.7816324234008789,2.1177873611450195,-0.009572997689247131
1715114115319276500,7.668276611328125,0.9752712249755859,2.4494757652282715,0.8559852838516235
1715114115329226500,7.6782265625,2.556765556335449,2.7784743309020996,1.6920019388198853
1715114115339176700,7.6881767578125,3.905400276184082,2.942274570465088,1.9780361652374268
1715114115349126700,7.698126708984375,5.083449363708496,2.6881918907165527,1.6243480443954468
1715114115359076600,7.70807666015625,5.87678337097168,2.1505541801452637,0.7476171255111694
1715114115369026600,7.718026611328125,6.206275939941406,1.664072036743164,-0.39400628209114075
1715114115378976500,7.7279765625,6.343489646911621,1.2678351402282715,-1.316625714302063
1715114115388926700,7.7379267578125,6.2155961990356445,0.9513883590698242,-1.9193648099899292
1715114115398876700,7.747876708984375,6.026071548461914,0.9384875297546387,-2.2553913593292236
1715114115408826600,7.75782666015625,5.279653549194336,1.214437484741211,-2.354780912399292
1715114115418776600,7.767776611328125,4.071459770202637,1.8088560104370117,-2.4549002647399902
1715114115428726500,7.7777265625,2.7856903076171875,2.5457563400268555,-2.068237543106079
1715114115438676500,7.787676513671875,1.8380603790283203,3.181497573852539,-1.0557756423950195
1715114115448626700,7.797626708984375,1.4199399948120117,3.4958982467651367,-0.051697731018066406
1715114115458576600,7.80757666015625,1.479715347290039,3.4052438735961914,0.7583742737770081
1715114115468526600,7.817526611328125,2.3409929275512695,3.0117239952087402,1.3848211765289307
1715114115478476500,7.8274765625,3.8618526458740234,2.209941864013672,1.8957916498184204
1715114115488426500,7.837426513671875,5.013459205627441,1.1355376243591309,2.057492256164551
1715114115498376700,7.847376708984375,4.895923614501953,0.023628711700439453,1.298350214958191
1715114115508326700,7.85732666015625,3.7779550552368164,-0.816866397857666,-0.11895516514778137
1715114115518276600,7.867276611328125,2.2219886779785156,-1.3798878192901611,-1.3339900970458984
1715114115528226600,7.8772265625,0.564457893371582,-1.7214875221252441,-2.2297425270080566
1715114115538176500,7.887176513671875,-0.9112005233764648,-1.769944429397583,-2.6456515789031982
1715114115548126700,7.897126708984375,-1.6057257652282715,-1.5708942413330078,-2.5773634910583496
1715114115558076700,7.90707666015625,-1.2235965728759766,-1.3804795742034912,-1.9057697057724
1715114115568026600,7.917026611328125,-0.16051006317138672,-1.3562824726104736,-0.719615638256073
1715114115577976600,7.9269765625,1.1221466064453125,-1.4933629035949707,0.38662809133529663
1715114115587926500,7.936926513671875,2.09653377532959,-1.7198474407196045,1.2216025590896606
1715114115597876500,7.94687646484375,2.597264289855957,-2.033578395843506,1.5131633281707764
1715114115607826700,7.95682666015625,2.845149040222168,-2.4407424926757812,1.4185123443603516
1715114115617776600,7.966776611328125,2.630573272705078,-2.7706480026245117,1.0666451454162598
1715114115627726600,7.9767265625,1.9267396926879883,-3.053792715072632,0.5579098463058472
1715114115637676800,7.9866767578125,0.7744760513305664,-3.3158693313598633,0.0913897156715393
1715114115647626800,7.996626708984375,-0.6086692810058594,-3.4626731872558594,-0.3396908640861511
1715114115657576700,8.00657666015625,-2.0587778091430664,-3.5045294761657715,-0.8270716667175293
1715114115667527000,8.01652685546875,-3.4276089668273926,-3.4890661239624023,-1.2569983005523682
1715114115677476900,8.026476806640625,-4.630539417266846,-3.452911853790283,-1.3973010778427124
1715114115687427000,8.036427001953125,-5.602993488311768,-3.26430606842041,-1.1782883405685425
1715114115697377000,8.046376953125,-6.313668251037598,-2.9736576080322266,-0.7554214596748352
1715114115707327000,8.056326904296874,-6.841360092163086,-2.649602174758911,-0.308794766664505
1715114115717277200,8.066277099609374,-7.126705169677734,-2.249450922012329,0.14449866116046906
1715114115727227100,8.07622705078125,-7.086090087890625,-1.765146017074585,0.6391727924346924
1715114115737177300,8.08617724609375,-6.7738142013549805,-1.252624750137329,1.1850119829177856
1715114115747127300,8.096127197265625,-6.228518009185791,-0.7366447448730469,1.5251890420913696
1715114115757077200,8.1060771484375,-5.722243309020996,-0.2428603172302246,1.7145673036575317
1715114115767027500,8.11602734375,-5.450806140899658,0.21917486190795898,1.7720097303390503
1715114115776977400,8.125977294921874,-5.228714466094971,0.6902647018432617,1.6040174961090088
1715114115786927400,8.13592724609375,-4.770968437194824,1.126007080078125,1.3795968294143677
1715114115796877600,8.145877685546875,-3.8922691345214844,1.5803561210632324,1.2342162132263184
1715114115806827500,8.15582763671875,-2.7782812118530273,1.9748296737670898,1.13489830493927
1715114115816777700,8.16577783203125,-1.2884106636047363,2.2725300788879395,1.1772749423980713
1715114115826727700,8.175727783203126,0.6799736022949219,2.4443788528442383,1.6727300882339478
1715114115836677600,8.185677734375,2.676100730895996,2.549652576446533,2.3223466873168945
1715114115846627800,8.1956279296875,4.283106803894043,2.4662914276123047,2.561685085296631
1715114115856577800,8.205577880859375,5.377920150756836,2.1735692024230957,2.532525062561035
1715114115866528000,8.215528076171875,5.877501487731934,1.6509184837341309,2.1622982025146484
1715114115876478000,8.22547802734375,6.227851867675781,1.1480255126953125,1.3438043594360352
1715114115886428000,8.235427978515625,6.657380104064941,0.7613239288330078,0.32065480947494507
1715114115896378000,8.245378173828126,7.107081413269043,0.5374774932861328,-0.6161133050918579
1715114115906328000,8.255328125,6.688144683837891,0.47897863388061523,-1.2668507099151611
1715114115916278000,8.265278076171874,5.059806823730469,0.7010250091552734,-1.4493422508239746
1715114115926228000,8.27522802734375,3.207045555114746,1.1761393547058105,-1.3111019134521484
1715114115936178200,8.28517822265625,1.5723199844360352,1.6280131340026855,-1.128962755203247
1715114115946128100,8.295128173828125,0.25780487060546875,2.1297407150268555,-0.701772928237915
1715114115956078000,8.305078125,-0.4393014907836914,2.4536547660827637,-0.0286596417427063
1715114115966028000,8.315028076171876,-0.011705398559570312,2.398329257965088,0.5824699997901917
1715114115975978000,8.32497802734375,1.2655363082885742,1.80977201461792,0.7774455547332764
1715114115985928000,8.334927978515625,2.7476892471313477,0.8791918754577637,0.4750598669052124
1715114115995878100,8.344878173828125,4.218381881713867,-0.023432254791259766,-0.006274819374084473
1715114116005828000,8.354828125,5.212900161743164,-1.091905117034912,-0.3343622088432312
1715114116015778000,8.364778076171875,5.240304946899414,-1.940098762512207,-0.4521738290786743
1715114116025728000,8.37472802734375,4.169541358947754,-2.298711061477661,-0.27291440963745117
1715114116035678000,8.384677978515626,2.5449581146240234,-2.2174322605133057,0.37531769275665283
1715114116045628200,8.394628173828124,1.403005599975586,-1.9491400718688965,1.4056308269500732
1715114116055578000,8.404578125,1.154022216796875,-1.7481162548065186,2.1610264778137207
1715114116065528000,8.414528076171875,1.3908500671386719,-1.6754486560821533,2.442413091659546
1715114116075478000,8.42447802734375,1.693192481994629,-1.7793076038360596,2.5030393600463867
1715114116085428000,8.434427978515625,1.621175765991211,-1.7907633781433105,2.3310413360595703
1715114116095378200,8.444378173828126,1.1352529525756836,-1.681384801864624,2.019683837890625
1715114116105328000,8.454328125,0.36167144775390625,-1.606473684310913,1.721053123474121
1715114116115278000,8.464278076171874,-0.689570426940918,-1.598724126815796,1.3915131092071533
1715114116125228000,8.47422802734375,-1.689009189605713,-1.612860918045044,1.0774415731430054
1715114116135178000,8.484177978515625,-2.5651512145996094,-1.6768758296966553,0.9867328405380249
1715114116145128000,8.4941279296875,-3.446847915649414,-1.7192723751068115,1.0013749599456787
1715114116155078100,8.504078125,-4.3960981369018555,-1.70108962059021,1.0727185010910034
1715114116165028000,8.514028076171876,-5.279899597167969,-1.6438837051391602,1.2018383741378784
1715114116174978000,8.52397802734375,-6.047863006591797,-1.5532217025756836,1.3317010402679443
1715114116184928000,8.533927978515624,-6.688755512237549,-1.457366704940796,1.3460659980773926
1715114116194878000,8.5438779296875,-7.081953048706055,-1.3602960109710693,1.2459115982055664
1715114116204828200,8.553828125,-7.092282295227051,-1.2101192474365234,1.0193524360656738
1715114116214778000,8.563778076171875,-6.750621795654297,-1.015044927597046,0.8578256964683533
1715114116224728000,8.57372802734375,-6.172014236450195,-0.7671394348144531,0.8313696980476379
1715114116234678000,8.583677978515626,-5.637195587158203,-0.5317673683166504,0.7961867451667786
1715114116244628000,8.5936279296875,-5.330775737762451,-0.40706348419189453,0.5501366257667542
1715114116254578200,8.603578125,-5.380784511566162,-0.2542076110839844,0.2491418719291687
1715114116264528100,8.613528076171875,-5.515376567840576,0.02039194107055664,0.08561202883720398
1715114116274478000,8.62347802734375,-5.358611583709717,0.37654972076416016,0.2433284968137741
1715114116284428000,8.633427978515625,-4.78764533996582,0.6574821472167969,0.48900648951530457
1715114116294378000,8.6433779296875,-3.8708200454711914,0.9692668914794922,0.6882343292236328
1715114116304328000,8.653327880859376,-2.632565975189209,1.3256006240844727,1.0941810607910156
1715114116314278100,8.663278076171874,-1.1635875701904297,1.5527524948120117,1.6298006772994995
1715114116324228000,8.67322802734375,0.4130401611328125,1.5759296417236328,1.9902894496917725
1715114116334178000,8.683177978515625,1.9459142684936523,1.4924607276916504,2.048755645751953
1715114116344128000,8.6931279296875,3.2791738510131836,1.442434310913086,1.8364369869232178
1715114116354078000,8.703077880859375,4.046258926391602,1.3910064697265625,1.3865840435028076
1715114116364028200,8.713028076171875,4.579129219055176,1.4278249740600586,0.7386984825134277
1715114116373978000,8.72297802734375,5.14321231842041,1.496598243713379,0.11918511986732483
1715114116383928000,8.732927978515624,5.7797393798828125,1.5575642585754395,-0.40762510895729065
1715114116393878000,8.7428779296875,5.942641258239746,1.6603975296020508,-0.9163054823875427
1715114116403828000,8.752827880859375,5.041595458984375,1.9599623680114746,-1.3119434118270874
1715114116413778200,8.762778076171875,3.40521240234375,2.452714443206787,-1.4475749731063843
1715114116423728000,8.77272802734375,1.7837038040161133,2.959402561187744,-1.2840754985809326
1715114116433678000,8.782677978515625,0.9498815536499023,3.3957128524780273,-0.8669774532318115
1715114116443628000,8.7926279296875,1.3775243759155273,3.512752056121826,-0.305705726146698
1715114116453578000,8.802577880859374,3.0379457473754883,3.0055346488952637,0.2440451979637146
1715114116463528000,8.81252783203125,4.9834489822387695,2.137619972229004,0.5661779642105103
1715114116473478100,8.82247802734375,6.167588233947754,1.305997371673584,0.4789872169494629
1715114116483428000,8.832427978515625,6.058276176452637,0.6130461692810059,-0.05632135272026062
1715114116493378000,8.8423779296875,5.032979965209961,0.11159133911132812,-0.811467170715332
1715114116503328000,8.852327880859375,3.533602714538574,-0.2332134246826172,-1.4935166835784912
1715114116513278000,8.86227783203125,1.9965009689331055,-0.37973642349243164,-1.9724035263061523
1715114116523228200,8.872228271484374,0.8056974411010742,-0.40323352813720703,-2.122762441635132
1715114116533178000,8.88217822265625,0.09729671478271484,-0.41998863220214844,-1.9292621612548828
1715114116543128000,8.892128173828125,-0.2690906524658203,-0.3663792610168457,-1.3520694971084595
1715114116553078000,8.902078125,-0.27500343322753906,-0.24747419357299805,-0.42540934681892395
1715114116563028000,8.912028076171875,0.1566629409790039,-0.30051374435424805,0.4094458222389221
1715114116572978200,8.921978271484376,0.850677490234375,-0.630889892578125,0.800774097442627
1715114116582928100,8.93192822265625,1.4172954559326172,-1.0385565757751465,0.8377582430839539
1715114116592878000,8.941878173828124,1.6773347854614258,-1.447309970855713,0.6367805004119873
1715114116602828000,8.951828125,1.756871223449707,-1.956233263015747,0.232607901096344
1715114116612778000,8.961778076171875,1.719447135925293,-2.3818154335021973,-0.3127588927745819
1715114116622728000,8.97172802734375,1.4521703720092773,-2.7414674758911133,-0.8763712644577026
1715114116632678100,8.98167822265625,0.7374114990234375,-2.9945409297943115,-1.330601692199707
1715114116642628000,8.991628173828126,-0.29914379119873047,-3.083265781402588,-1.6905070543289185
1715114116652578000,9.001578125,-1.2171249389648438,-3.035752773284912,-1.8823752403259277
1715114116662528000,9.011528076171874,-1.9061636924743652,-2.9730536937713623,-1.9119758605957031
1715114116672478000,9.02147802734375,-2.5572280883789062,-2.9347763061523438,-1.8827890157699585
1715114116682428200,9.03142822265625,-3.1134448051452637,-2.838731288909912,-1.6838933229446411
1715114116692378000,9.041378173828125,-3.442079544067383,-2.654337167739868,-1.2376395463943481
1715114116702328000,9.051328125,-3.7116541862487793,-2.499056816101074,-0.8052985668182373
1715114116712278000,9.061278076171876,-4.0626068115234375,-2.320957899093628,-0.5505545735359192
1715114116722228000,9.07122802734375,-4.478687763214111,-2.094951629638672,-0.34905534982681274
1715114116732178200,9.08117822265625,-4.834704875946045,-1.80470871925354,-0.06744620203971863
1715114116742128000,9.091128173828125,-4.913779258728027,-1.4846761226654053,0.23363280296325684
1715114116752078000,9.101078125,-4.765224933624268,-1.1771941184997559,0.4263056814670563
1715114116762028000,9.111028076171875,-4.60385274887085,-0.9268579483032227,0.4269059896469116
1715114116771978000,9.12097802734375,-4.500454425811768,-0.5627741813659668,0.3229944407939911
1715114116781928000,9.130927978515626,-4.301191806793213,-0.04799652099609375,0.3398859202861786
1715114116791878100,9.140878173828124,-4.068080902099609,0.4067540168762207,0.5328148603439331
1715114116801828000,9.150828125,-3.76397705078125,0.808234691619873,0.6994454860687256
1715114116811778000,9.160778076171875,-3.400895595550537,1.1080541610717773,0.722725510597229
1715114116821728000,9.17072802734375,-2.7666358947753906,1.368502140045166,0.7393278479576111
1715114116831678000,9.180677978515625,-1.4420113563537598,1.442570686340332,0.8961939215660095
1715114116841628200,9.190628173828125,0.6079111099243164,1.334507942199707,1.3305317163467407
1715114116851578000,9.200578125,2.7277889251708984,1.292111873626709,1.906600832939148
1715114116861528000,9.210528076171874,4.368017196655273,1.3489203453063965,2.339827060699463
1715114116871478000,9.22047802734375,5.49783992767334,1.3428430557250977,2.484067916870117
1715114116881428000,9.230427978515625,6.3189897537231445,1.1815557479858398,2.0786800384521484
1715114116891378200,9.240378173828125,6.53632926940918,0.9639902114868164,1.162389874458313
1715114116901328100,9.250328125,5.827340126037598,0.9336190223693848,0.1710553765296936
1715114116911278000,9.260278076171875,4.179047584533691,1.137448787689209,-0.3259298503398895
1715114116921228000,9.27022802734375,2.4692955017089844,1.5833048820495605,-0.43512022495269775
1715114116931178000,9.280177978515624,1.0154333114624023,2.076383590698242,-0.4799639880657196
1715114116941128000,9.2901279296875,-0.09969043731689453,2.4976606369018555,-0.4094880521297455
1715114116951078000,9.300077880859375,-0.44870758056640625,2.7404122352600098,-0.18029606342315674
1715114116961027800,9.31002783203125,0.1627969741821289,2.6028451919555664,-0.07073263078927994
1715114116970977800,9.319977783203125,1.5833101272583008,2.096937656402588,-0.14413487911224365
1715114116980927700,9.329927734375,2.9707117080688477,1.365039348602295,-0.40748733282089233
1715114116990877700,9.339877685546876,3.563901901245117,0.744837760925293,-0.8589818477630615
1715114117000827600,9.34982763671875,3.196889877319336,0.3378429412841797,-1.230686068534851
1715114117010777600,9.359777587890624,2.3600502014160156,0.023078441619873047,-1.3714643716812134
1715114117020727600,9.3697275390625,1.6379289627075195,-0.2576766014099121,-1.2404379844665527
1715114117030677500,9.379677490234375,1.3525381088256836,-0.3269944190979004,-0.8396075963973999
1715114117040627500,9.38962744140625,1.7612409591674805,-0.276918888092041,-0.06791312992572784
1715114117050577400,9.399577392578125,2.530850410461426,-0.27609825134277344,0.6663821339607239
1715114117060527400,9.40952734375,3.430217742919922,-0.37099719047546387,1.184457540512085
1715114117070477300,9.419477294921874,3.956075668334961,-0.5168716907501221,1.5070340633392334
1715114117080427300,9.42942724609375,3.6851682662963867,-0.649803638458252,1.504154920578003
1715114117090377200,9.439377197265625,2.727182388305664,-0.7708163261413574,1.3133800029754639
1715114117100327200,9.4493271484375,1.6445531845092773,-0.8885958194732666,1.1089574098587036
1715114117110277000,9.459277099609375,0.6660385131835938,-1.0155718326568604,0.9441702365875244
1715114117120227000,9.46922705078125,-0.2742033004760742,-1.1869544982910156,0.7316120862960815
1715114117130177000,9.479177001953126,-1.3132095336914062,-1.3616914749145508,0.4283125102519989
1715114117140127000,9.489126953125,-2.306403160095215,-1.5265142917633057,0.1293504387140274
1715114117150077000,9.499076904296874,-3.2824573516845703,-1.6809818744659424,-0.07270121574401855
1715114117160027000,9.50902685546875,-4.079348564147949,-1.7715446949005127,-0.14458461105823517
1715114117169976800,9.518976806640625,-4.674097537994385,-1.802016019821167,-0.053971633315086365
1715114117179926800,9.5289267578125,-5.216278076171875,-1.7990128993988037,0.12053406238555908
1715114117189876700,9.538876708984375,-5.817517280578613,-1.7162065505981445,0.17121171951293945
1715114117199826700,9.54882666015625,-6.265134811401367,-1.5204222202301025,0.08555179834365845
1715114117209776600,9.558776611328126,-6.341738700866699,-1.351865291595459,-0.0021616965532302856
1715114117219726600,9.5687265625,-6.077301025390625,-1.229388952255249,-0.06201903522014618
1715114117229676500,9.578676513671875,-5.844361305236816,-1.021127700805664,-0.135641410946846
1715114117239626500,9.58862646484375,-5.900496482849121,-0.713594913482666,-0.3020288050174713
1715114117249576700,9.59857666015625,-6.112913131713867,-0.3615145683288574,-0.49154555797576904
1715114117259526700,9.608526611328125,-6.100937843322754,-0.014554023742675781,-0.5241600871086121
1715114117269476600,9.6184765625,-5.904478073120117,0.40066957473754883,-0.29746609926223755
1715114117279426600,9.628426513671876,-5.419557571411133,0.9470276832580566,-0.0012857168912887573
1715114117289376500,9.63837646484375,-4.465519428253174,1.3280835151672363,0.2656220495700836
1715114117299326700,9.64832666015625,-3.080862522125244,1.4994149208068848,0.530971109867096
1715114117309276700,9.658276611328125,-1.6331825256347656,1.626147747039795,0.7152395248413086
1715114117319226600,9.6682265625,-0.5796327590942383,1.5957388877868652,0.7023667097091675
1715114117329176600,9.678176513671875,0.10509681701660156,1.4799160957336426,0.17370454967021942
1715114117339126500,9.68812646484375,0.9003257751464844,1.3357906341552734,-0.6732174158096313
1715114117349076500,9.698076416015626,1.8701763153076172,1.1029534339904785,-1.5061862468719482
1715114117359026700,9.708026611328124,2.668572425842285,0.833899974822998,-2.2586581707000732
1715114117368976600,9.7179765625,3.177978515625,0.6594243049621582,-2.931412935256958
1715114117378926600,9.727926513671875,3.7055463790893555,0.6438565254211426,-3.269266366958618
1715114117388876500,9.73787646484375,4.065788269042969,0.813291072845459,-3.1898036003112793
1715114117398826500,9.747826416015625,3.996403694152832,1.262526512145996,-2.9729225635528564
1715114117408776700,9.757776611328126,3.420686721801758,1.840257167816162,-2.7094686031341553
1715114117418726700,9.7677265625,2.60933780670166,2.2643985748291016,-2.487590789794922
1715114117428676600,9.777676513671874,1.8211565017700195,2.6290907859802246,-2.1763195991516113
1715114117438626600,9.78762646484375,1.5433263778686523,3.119147777557373,-1.5576809644699097
1715114117448576500,9.797576416015625,2.441910743713379,3.3689489364624023,-0.5636982917785645
1715114117458526700,9.807526611328125,4.360821723937988,3.014087677001953,0.3737105131149292
1715114117468476700,9.8174765625,6.277463912963867,2.3364195823669434,0.8744021654129028
1715114117478426600,9.827426513671876,7.337488174438477,1.5805940628051758,0.8311746120452881
1715114117488376600,9.83737646484375,7.042790412902832,0.7967367172241211,0.2531384229660034
1715114117498326500,9.847326416015624,5.804498672485352,0.08583688735961914,-0.5162841081619263
1715114117508276500,9.8572763671875,4.155862808227539,-0.39688730239868164,-1.2869651317596436
1715114117518226700,9.867226806640625,2.6635265350341797,-0.6618261337280273,-1.8949105739593506
1715114117528176600,9.8771767578125,1.4069623947143555,-0.7607483863830566,-2.0648417472839355
1715114117538126600,9.887126708984376,0.49874114990234375,-0.682828426361084,-1.6406763792037964
1715114117548076500,9.89707666015625,0.21926307678222656,-0.4895033836364746,-0.6422203183174133
1715114117558026500,9.907026611328124,0.5588035583496094,-0.2825813293457031,0.6333305239677429
1715114117567976700,9.916976806640625,1.087508201599121,-0.2638554573059082,1.6987627744674683
1715114117577926700,9.9269267578125,1.5230846405029297,-0.5181851387023926,2.2886593341827393
1715114117587876600,9.936876708984375,1.836599349975586,-0.9493288993835449,2.335008144378662
1715114117597826600,9.94682666015625,2.008810043334961,-1.3904082775115967,2.103255271911621
1715114117607776500,9.956776611328126,1.9783172607421875,-1.8528287410736084,1.7730929851531982
1715114117617726700,9.966726806640626,1.6709766387939453,-2.2778737545013428,1.3168823719024658
1715114117627676700,9.9766767578125,0.9855756759643555,-2.584440231323242,0.7892415523529053
1715114117637626600,9.986626708984375,-0.15035533905029297,-2.7625234127044678,0.23658272624015808
1715114117647576600,9.99657666015625,-1.505678653717041,-2.8273351192474365,-0.3109256625175476
1715114117657526500,10.006526611328125,-2.8131070137023926,-2.8448331356048584,-0.6422686576843262
1715114117667476500,10.0164765625,-3.8402576446533203,-2.879852533340454,-0.7997043132781982
1715114117677426700,10.0264267578125,-4.569859027862549,-2.8592474460601807,-0.8121480941772461
1715114117687376600,10.036376708984376,-5.085147857666016,-2.695049285888672,-0.6568726897239685
1715114117697326600,10.04632666015625,-5.421524524688721,-2.4229633808135986,-0.2107275426387787
1715114117707276500,10.056276611328125,-5.5670928955078125,-2.149059772491455,0.3737427294254303
1715114117717226500,10.0662265625,-5.5434160232543945,-1.812345027923584,0.859908938407898
1715114117727176700,10.0761767578125,-5.347507953643799,-1.4347574710845947,1.1438486576080322
1715114117737126700,10.086126708984375,-5.152402400970459,-1.020552635192871,1.3215258121490479
1715114117747076600,10.09607666015625,-5.034976959228516,-0.6076836585998535,1.514060378074646
1715114117757026600,10.106026611328126,-5.119659900665283,-0.2052016258239746,1.5912762880325317
1715114117766976500,10.1159765625,-5.086665630340576,0.18335962295532227,1.3944045305252075
1715114117776926700,10.1259267578125,-4.672748565673828,0.45168638229370117,1.136054515838623
1715114117786876700,10.135876708984375,-4.048375606536865,0.5770773887634277,0.7366065979003906
1715114117796826600,10.14582666015625,-3.326307773590088,0.6515846252441406,0.04304766282439232
1715114117806776600,10.155776611328125,-2.409860134124756,0.7067203521728516,-0.4922652840614319
1715114117816726500,10.1657265625,-1.5438718795776367,0.7060060501098633,-0.6120297312736511
1715114117826676500,10.175676513671876,-0.7492637634277344,0.8919463157653809,-0.37321916222572327
1715114117836626700,10.185626708984374,0.31224727630615234,1.2131118774414062,0.3115716874599457
1715114117846576600,10.19557666015625,1.5165624618530273,1.4045414924621582,1.0366981029510498
1715114117856526600,10.205526611328125,2.429318428039551,1.4360260963439941,1.1973638534545898
1715114117866476500,10.2154765625,3.1899919509887695,1.3980050086975098,0.790281355381012
1715114117876426500,10.225426513671875,4.1682939529418945,1.1780877113342285,0.05400857329368591
1715114117886376700,10.235376708984376,5.128368377685547,0.9377641677856445,-0.936050295829773
1715114117896326700,10.24532666015625,5.381003379821777,0.8338589668273926,-1.8700165748596191
1715114117906276600,10.255276611328124,4.675644874572754,0.8697404861450195,-2.3986313343048096
1715114117916226600,10.2652265625,3.2699098587036133,1.145756721496582,-2.4151339530944824
1715114117926176500,10.275176513671875,2.0020627975463867,1.621206283569336,-2.107292890548706
1715114117936126700,10.285126708984375,1.2703628540039062,2.0855345726013184,-1.6007013320922852
1715114117946076700,10.29507666015625,1.1006441116333008,2.3505702018737793,-0.8898441195487976
1715114117956026600,10.305026611328126,1.5720596313476562,2.4276700019836426,-0.28814396262168884
1715114117965976600,10.3149765625,2.8133554458618164,2.1282811164855957,0.15289166569709778
1715114117975926500,10.324926513671874,4.348838806152344,1.4503202438354492,0.19687971472740173
1715114117985876500,10.33487646484375,5.399131774902344,0.6383376121520996,-0.33470454812049866
1715114117995826700,10.34482666015625,5.298530578613281,-0.18685007095336914,-1.053762435913086
1715114118005776600,10.354776611328125,4.281557083129883,-0.8248391151428223,-1.7271592617034912
1715114118015726600,10.3647265625,2.746657371520996,-1.1706268787384033,-2.0245065689086914
1715114118025676500,10.374676513671876,1.2969589233398438,-1.1340701580047607,-1.7066795825958252
1715114118035626500,10.38462646484375,0.7230653762817383,-0.8454151153564453,-0.8017787933349609
1715114118045576700,10.39457666015625,1.0490179061889648,-0.6820526123046875,0.48095574975013733
1715114118055526700,10.404526611328125,1.5077896118164062,-0.5848536491394043,1.5931469202041626
1715114118065476600,10.4144765625,1.6431713104248047,-0.5543599128723145,2.192387104034424
1715114118075426600,10.424426513671875,1.3509273529052734,-0.6629390716552734,2.322718381881714
1715114118085376500,10.43437646484375,0.750279426574707,-0.7987871170043945,2.088693141937256
1715114118095326700,10.44432666015625,0.06998252868652344,-0.8977525234222412,1.8252965211868286
1715114118105276700,10.454276611328124,-0.5996522903442383,-1.0305845737457275,1.684624195098877
1715114118115226600,10.4642265625,-1.2197141647338867,-1.1266069412231445,1.523177146911621
1715114118125176600,10.474176513671875,-1.869530200958252,-1.1983141899108887,1.2770123481750488
1715114118135126500,10.48412646484375,-2.5997748374938965,-1.267293930053711,0.9017581939697266
1715114118145076500,10.494076416015625,-3.2852468490600586,-1.3441908359527588,0.5120272636413574
1715114118155026700,10.504026611328126,-3.9065375328063965,-1.3915917873382568,0.2578777074813843
1715114118164976600,10.5139765625,-4.502004146575928,-1.4002659320831299,0.1297326385974884
1715114118174926600,10.523926513671874,-5.073211669921875,-1.3914473056793213,0.0458492673933506
1715114118184876500,10.53387646484375,-5.593757152557373,-1.3275814056396484,0.024936769157648087
1715114118194826500,10.543826416015625,-6.024176597595215,-1.1546542644500732,0.050823863595724106
1715114118204776700,10.553776611328125,-6.109225273132324,-0.9497365951538086,0.19403715431690216
1715114118214726700,10.5637265625,-5.84132194519043,-0.6824431419372559,0.36091068387031555
1715114118224676600,10.573676513671876,-5.378695964813232,-0.4347519874572754,0.306623637676239
1715114118234626600,10.58362646484375,-4.9025726318359375,-0.16495084762573242,0.005809547379612923
1715114118244576500,10.593576416015624,-4.273292064666748,0.17739391326904297,-0.30008262395858765
1715114118254526700,10.603526611328125,-3.5137171745300293,0.43184995651245117,-0.579745352268219
1715114118264476700,10.6134765625,-2.637035846710205,0.6004791259765625,-0.8346287608146667
1715114118274426600,10.623426513671875,-1.665560245513916,0.8086667060852051,-0.9656589031219482
1715114118284376600,10.63337646484375,-0.7078762054443359,1.0341796875,-0.9143707156181335
1715114118294326500,10.643326416015626,0.35137939453125,1.218529224395752,-0.7683237791061401
1715114118304276500,10.6532763671875,1.3592100143432617,1.3859009742736816,-0.49942249059677124
1715114118314226700,10.663226806640624,2.0711374282836914,1.5671753883361816,-0.21451686322689056
1715114118324176600,10.6731767578125,2.543376922607422,1.7419195175170898,0.06996721029281616
1715114118334126600,10.683126708984375,2.7992706298828125,1.8168058395385742,0.2466602623462677
1715114118344076500,10.69307666015625,2.8390254974365234,1.8693981170654297,0.1546744406223297
1715114118354026500,10.703026611328125,2.8832759857177734,1.8897600173950195,-0.043383434414863586
1715114118363976400,10.7129765625,3.1142683029174805,1.7475838661193848,-0.3813535273075104
1715114118373926400,10.722926513671876,3.681844711303711,1.5249972343444824,-0.9647086262702942
1715114118383876400,10.73287646484375,3.9337291717529297,1.3647441864013672,-1.6387276649475098
1715114118393826300,10.742826416015625,3.250166893005371,1.46142578125,-2.250380754470825
1715114118403776300,10.7527763671875,1.939579963684082,1.8883028030395508,-2.3915650844573975
1715114118413726200,10.762726318359375,0.9963455200195312,2.3048043251037598,-1.957211971282959
1715114118423676200,10.77267626953125,0.6878299713134766,2.5739617347717285,-1.1667821407318115
1715114118433626000,10.782626220703126,1.360260009765625,2.721475601196289,-0.22259488701820374
1715114118443576000,10.792576171875,3.0868682861328125,2.5076913833618164,0.699634313583374
1715114118453526000,10.802526123046874,4.983492851257324,1.95204496383667,1.3446805477142334
1715114118463476000,10.81247607421875,5.970797538757324,1.2574715614318848,1.4288229942321777
1715114118473426000,10.822426025390625,5.329401016235352,0.46813106536865234,0.9409468173980713
1715114118483375900,10.8323759765625,3.7080163955688477,-0.20206689834594727,-0.0842726081609726
1715114118493325800,10.842325927734375,1.8399524688720703,-0.6309781074523926,-1.3366527557373047
1715114118503275800,10.85227587890625,0.20956897735595703,-0.7712812423706055,-2.56312894821167
1715114118513225700,10.862225830078126,-0.8560609817504883,-0.6749372482299805,-3.312954902648926
1715114118523175700,10.87217578125,-1.1391563415527344,-0.4819812774658203,-3.156752586364746
1715114118533125600,10.882125732421875,-0.6153802871704102,-0.27316951751708984,-2.244298219680786
1715114118543075300,10.892075439453125,0.22456932067871094,-0.24797916412353516,-1.0207326412200928
1715114118553025300,10.902025390625,0.9616670608520508,-0.36417245864868164,0.012163698673248291
1715114118562975200,10.911975341796875,1.4628734588623047,-0.6306476593017578,0.821937084197998
1715114118572925200,10.92192529296875,1.8192920684814453,-0.9610419273376465,1.310037612915039
1715114118582875100,10.931875244140626,1.9457283020019531,-1.2997260093688965,1.5388237237930298
1715114118592825000,10.9418251953125,1.738112449645996,-1.6245813369750977,1.5220690965652466
1715114118602775000,10.951775146484374,1.2978448867797852,-1.931762933731079,1.3067383766174316
1715114118612725000,10.96172509765625,0.7314367294311523,-2.1556921005249023,1.0494369268417358
1715114118622675000,10.971675048828125,0.22277545928955078,-2.304431676864624,0.7890549898147583
1715114118632625000,10.981625,-0.23058319091796875,-2.506265878677368,0.5035924315452576
1715114118642574800,10.991574951171875,-1.0139427185058594,-2.6969804763793945,0.21116453409194946
1715114118652524800,11.00152490234375,-2.194070816040039,-2.7701902389526367,-0.1332828402519226
1715114118662474800,11.011474853515624,-3.3473591804504395,-2.769728183746338,-0.2811429500579834
1715114118672424700,11.0214248046875,-4.299895763397217,-2.7532830238342285,-0.18624247610569
1715114118682374700,11.031374755859375,-4.9592485427856445,-2.587622880935669,0.037812650203704834
1715114118692324600,11.04132470703125,-5.260913372039795,-2.265716552734375,0.4115257263183594
1715114118702274600,11.051274658203125,-5.368834495544434,-1.8586106300354004,0.7884150743484497
1715114118712224500,11.061224609375,-5.326888561248779,-1.4566621780395508,0.9793152809143066
1715114118722174500,11.071174560546876,-5.059281349182129,-1.145373821258545,1.0268394947052002
1715114118732124700,11.081124755859374,-4.752716064453125,-0.853085994720459,0.9241838455200195
1715114118742074600,11.09107470703125,-4.488410949707031,-0.43668079376220703,0.7613509893417358
1715114118752024600,11.101024658203125,-4.22360372543335,-0.029772281646728516,0.522652268409729
1715114118761974500,11.110974609375,-3.8343734741210938,0.3296966552734375,0.24291099607944489
1715114118771924500,11.120924560546875,-3.3589844703674316,0.7081332206726074,0.00007355213165283203
1715114118781874700,11.130874755859375,-2.812005043029785,1.0481452941894531,-0.2367228865623474
1715114118791824600,11.14082470703125,-1.9731383323669434,1.3295283317565918,-0.28711211681365967
1715114118801774600,11.150774658203124,-1.0990328788757324,1.5540337562561035,-0.16236545145511627
1715114118811724500,11.160724609375,-0.5089120864868164,1.7730660438537598,-0.06924127042293549
1715114118821674500,11.170674560546875,-0.1940441131591797,1.946521282196045,0.008914679288864136
1715114118831624400,11.18062451171875,0.18257808685302734,2.06048583984375,0.33108896017074585
1715114118841574700,11.19057470703125,1.1824941635131836,2.0565919876098633,0.9057453274726868
1715114118851524600,11.200524658203125,2.6336488723754883,1.8516077995300293,1.3390510082244873
1715114118861474600,11.210474609375,4.0558977127075195,1.5833873748779297,1.214066982269287
1715114118871424500,11.220424560546874,5.19608211517334,1.4301323890686035,0.5844393372535706
1715114118881374500,11.23037451171875,5.538678169250488,1.2309150695800781,-0.2010422796010971
1715114118891324700,11.24032470703125,4.589546203613281,1.1279616355895996,-0.9261742234230042
1715114118901274600,11.250274658203125,2.8209991455078125,1.2947840690612793,-1.1436601877212524
1715114118911224600,11.260224609375,1.3236818313598633,1.563042163848877,-0.876068115234375
1715114118921174500,11.270174560546875,0.4665374755859375,1.7369141578674316,-0.49572718143463135
1715114118931124500,11.28012451171875,0.24711227416992188,1.7652430534362793,-0.1395857334136963
1715114118941074700,11.29007470703125,0.8041620254516602,1.5254197120666504,0.02409784495830536
1715114118951024600,11.300024658203125,1.8287410736083984,0.925992488861084,-0.22414377331733704
1715114118960974600,11.309974609375,2.8646974563598633,0.19110393524169922,-0.590235710144043
1715114118970924500,11.319924560546875,3.374781608581543,-0.3965888023376465,-0.9274501204490662
1715114118980874500,11.32987451171875,3.188091278076172,-0.7269086837768555,-1.2540606260299683
1715114118990824400,11.339824462890626,2.374582290649414,-0.9850642681121826,-1.301391363143921
1715114119000774700,11.349774658203126,1.3359308242797852,-1.0313694477081299,-1.0267729759216309
1715114119010724600,11.359724609375,0.918635368347168,-0.8872032165527344,-0.37591174244880676
1715114119020674600,11.369674560546875,1.073683738708496,-0.6920747756958008,0.5567861795425415
1715114119030624500,11.37962451171875,1.6406269073486328,-0.5813231468200684,1.3428946733474731
1715114119040574500,11.389574462890625,2.1730918884277344,-0.7100510597229004,1.7893911600112915
1715114119050524700,11.399524658203125,2.1906538009643555,-0.8574988842010498,1.7535274028778076
1715114119060474600,11.409474609375,1.7416210174560547,-0.8987414836883545,1.5138546228408813
1715114119070424600,11.419424560546876,1.0595827102661133,-0.9460737705230713,1.319385051727295
1715114119080374500,11.42937451171875,0.3067646026611328,-0.9980101585388184,1.090649962425232
1715114119090324500,11.439324462890625,-0.3007383346557617,-1.0270743370056152,0.8179905414581299
1715114119100274700,11.449274658203125,-0.7606725692749023,-1.071120262145996,0.583794891834259
1715114119110224600,11.459224609375,-1.209660530090332,-1.1246230602264404,0.41304200887680054
1715114119120174600,11.469174560546875,-1.7848401069641113,-1.1377694606781006,0.28909581899642944
1715114119130124500,11.47912451171875,-2.3948841094970703,-1.1112866401672363,0.2593327760696411
1715114119140074500,11.489074462890626,-3.0112929344177246,-1.073573112487793,0.41347670555114746
1715114119150024400,11.4990244140625,-3.6398777961730957,-0.998624324798584,0.6435719728469849
1715114119159974700,11.508974609375,-4.397116661071777,-0.9065029621124268,0.8447012901306152
1715114119169924600,11.518924560546875,-5.156670570373535,-0.7721362113952637,0.9303560853004456
1715114119179874600,11.52887451171875,-5.687422275543213,-0.5468811988830566,0.9611572027206421
1715114119189824500,11.538824462890625,-5.924707412719727,-0.34257078170776367,0.9053726196289062
1715114119199774500,11.5487744140625,-6.013216972351074,-0.06729459762573242,0.7474791407585144
1715114119209724700,11.558724609375,-5.872742652893066,0.3227705955505371,0.5423467755317688
1715114119219674600,11.568674560546874,-5.413264751434326,0.6507735252380371,0.4372648596763611
1715114119229624600,11.57862451171875,-4.702077388763428,0.8444523811340332,0.33159971237182617
1715114119239574500,11.588574462890625,-3.944803237915039,1.0514512062072754,0.2385265827178955
1715114119249524500,11.5985244140625,-3.1459274291992188,1.2423138618469238,0.10350281745195389
1715114119259474400,11.608474365234375,-2.0322866439819336,1.3100976943969727,0.07816877961158752
1715114119269424400,11.61842431640625,-0.5443248748779297,1.3065462112426758,0.08846841007471085
1715114119279374300,11.628374267578126,0.9914731979370117,1.3097901344299316,0.055451326072216034
1715114119289324300,11.63832421875,2.119208335876465,1.4050593376159668,0.07176481932401657
1715114119299274200,11.648274169921875,2.787261962890625,1.5733389854431152,0.16789504885673523
1715114119309224200,11.65822412109375,3.2725753784179688,1.587958812713623,0.3032148480415344
1715114119319174100,11.668174072265625,3.5170650482177734,1.466362476348877,0.06170815974473953
1715114119329124000,11.6781240234375,3.5826454162597656,1.3635897636413574,-0.5889438390731812
1715114119339074000,11.688073974609376,3.455723762512207,1.1884078979492188,-1.1794867515563965
1715114119349024000,11.69802392578125,3.118157386779785,1.1261005401611328,-1.3640339374542236
1715114119358974000,11.707973876953124,2.732532501220703,1.167142391204834,-1.1938875913619995
1715114119368924000,11.717923828125,2.40323543548584,1.2411537170410156,-1.0568701028823853
1715114119378873900,11.727873779296875,1.8947973251342773,1.3888368606567383,-1.1607948541641235
1715114119388823800,11.73782373046875,1.191300392150879,1.7188048362731934,-1.4765210151672363
1715114119398773800,11.747773681640625,0.3423137664794922,2.169487953186035,-1.6687883138656616
1715114119408723700,11.7577236328125,-0.21148967742919922,2.445862293243408,-1.5481501817703247
1715114119418673700,11.767673583984376,-0.057709693908691406,2.5090346336364746,-0.9965786933898926
1715114119428623600,11.77762353515625,0.9315862655639648,2.535189151763916,-0.13984164595603943
1715114119438573600,11.787573486328125,2.490633010864258,2.399374485015869,0.7793535590171814
1715114119448523500,11.7975234375,4.274252891540527,1.8987302780151367,1.6432650089263916
1715114119458473500,11.807473388671875,5.646380424499512,1.2080001831054688,2.071681499481201
1715114119468423400,11.81742333984375,5.836005210876465,0.30966806411743164,1.681261420249939
1715114119478373400,11.827373291015626,4.777473449707031,-0.5781044960021973,0.34005144238471985
1715114119488323300,11.8373232421875,3.0818843841552734,-1.1623425483703613,-1.3042631149291992
1715114119498273300,11.847273193359374,1.2777824401855469,-1.4091153144836426,-2.6125593185424805
1715114119508223200,11.85722314453125,-0.15966129302978516,-1.3486568927764893,-3.4387621879577637
1715114119518173200,11.867173095703125,-0.9940776824951172,-1.1238458156585693,-3.4161980152130127
1715114119528123100,11.877123046875,-1.045222282409668,-0.8701910972595215,-2.6274571418762207
1715114119538073000,11.887072998046875,-0.27921390533447266,-0.6821374893188477,-1.3998241424560547
1715114119548023000,11.89702294921875,0.8133840560913086,-0.7024722099304199,-0.23886072635650635
1715114119557973000,11.906972900390626,1.7519207000732422,-0.9340195655822754,0.39016488194465637
1715114119567923000,11.9169228515625,2.246410369873047,-1.2634010314941406,0.568713903427124
1715114119577873000,11.926872802734374,2.2029361724853516,-1.5392391681671143,0.42118674516677856
1715114119587822800,11.93682275390625,1.742659568786621,-1.7249202728271484,0.12464780360460281
1715114119597772800,11.946772705078125,0.9003686904907227,-1.8501698970794678,-0.10996431112289429
1715114119607722800,11.95672265625,-0.1369638442993164,-1.8238680362701416,-0.25416988134384155
1715114119617672700,11.966672607421875,-0.9917659759521484,-1.7128281593322754,-0.29881349205970764
1715114119627622700,11.97662255859375,-1.515885353088379,-1.7526066303253174,-0.29344698786735535
1715114119637572600,11.986572509765624,-2.0051045417785645,-1.8786036968231201,-0.34688642621040344
1715114119647522600,11.9965224609375,-2.6358742713928223,-1.9483087062835693,-0.4577699303627014
1715114119657472500,12.006472412109375,-3.341546058654785,-1.9607832431793213,-0.43141067028045654
1715114119667422500,12.01642236328125,-4.027770042419434,-1.9944055080413818,-0.29404938220977783
1715114119677372400,12.026372314453125,-4.696328639984131,-1.916405439376831,-0.12343980371952057
1715114119687322400,12.036322265625,-5.215465545654297,-1.6609630584716797,0.045179471373558044
1715114119697272300,12.046272216796876,-5.630115985870361,-1.3734822273254395,0.15179914236068726
1715114119707222300,12.05622216796875,-5.855511665344238,-1.0284512042999268,0.11087453365325928
1715114119717172200,12.066172119140624,-5.897724151611328,-0.5960488319396973,0.13047868013381958
1715114119727122200,12.0761220703125,-5.777005195617676,-0.09454917907714844,0.20778031647205353
1715114119737072000,12.086072021484375,-5.402879238128662,0.3942227363586426,0.24388352036476135
1715114119747022000,12.09602197265625,-4.884917259216309,0.8350038528442383,0.16289232671260834
1715114119756972000,12.105971923828125,-4.29877233505249,1.1256170272827148,-0.09508594870567322
1715114119766922000,12.115921875,-3.797565460205078,1.185828685760498,-0.5633361339569092
1715114119776872000,12.125871826171876,-3.320462703704834,1.377772331237793,-0.9927746057510376
1715114119786821600,12.135821533203124,-2.428924083709717,1.727567195892334,-0.99252849817276
1715114119796771600,12.145771484375,-1.0131072998046875,2.0093302726745605,-0.665655255317688
1715114119806721500,12.155721435546875,0.8230218887329102,2.219130516052246,-0.08609725534915924
1715114119816671500,12.16567138671875,2.6370925903320312,2.274630069732666,0.6996921300888062
1715114119826621400,12.175621337890625,3.895899772644043,2.1139774322509766,1.0287240743637085
1715114119836571400,12.1855712890625,4.567183494567871,1.8987255096435547,0.7552568316459656
1715114119846521300,12.195521240234376,4.833099365234375,1.5434479713439941,0.311814546585083
1715114119856471300,12.20547119140625,4.937734603881836,1.178152084350586,-0.24619942903518677
1715114119866421200,12.215421142578125,5.087611198425293,0.8444318771362305,-0.8393290042877197
1715114119876371200,12.22537109375,4.931272506713867,0.6819639205932617,-1.4342182874679565
1715114119886321200,12.235321044921875,4.026973724365234,0.8315658569335938,-1.7014878988265991
1715114119896271000,12.24527099609375,2.437983512878418,1.051732063293457,-1.7354190349578857
1715114119906221300,12.25522119140625,0.7698240280151367,1.181809902191162,-1.7202789783477783
1715114119916171300,12.265171142578126,-0.5504980087280273,1.3770241737365723,-1.4276072978973389
1715114119926121200,12.275121337890624,-1.2442588806152344,1.728635311126709,-0.7664716243743896
1715114119936071200,12.2850712890625,-0.9224100112915039,1.9623007774353027,0.253415584564209
1715114119946021000,12.295021240234375,0.28900814056396484,1.852858543395996,1.2792620658874512
1715114119955971000,12.30497119140625,2.0072383880615234,1.2199440002441406,1.7996165752410889
1715114119965921300,12.31492138671875,3.477755546569824,0.3648662567138672,1.7516076564788818
1715114119975871200,12.324871337890626,4.137042045593262,-0.45715761184692383,1.4101083278656006
1715114119985821200,12.3348212890625,3.69582462310791,-0.9977767467498779,0.8931578397750854
1715114119995771100,12.344771240234374,2.838064193725586,-1.166259765625,0.39428770542144775
1715114120005721000,12.35472119140625,2.217660903930664,-1.1065669059753418,0.14012277126312256
1715114120015671300,12.36467138671875,2.221381187438965,-0.7998983860015869,0.0524253249168396
1715114120025621200,12.374621337890625,2.4488916397094727,-0.5097136497497559,0.17406690120697021
1715114120035571200,12.3845712890625,2.598997116088867,-0.28742551803588867,0.37000465393066406
1715114120045521200,12.394521240234376,2.6074304580688477,-0.2054004669189453,0.338461697101593
1715114120055471000,12.40447119140625,2.4123802185058594,-0.20763492584228516,0.1477249264717102
1715114120065421300,12.41442138671875,2.056279182434082,-0.30792808532714844,-0.02668905258178711
1715114120075371300,12.424371337890625,1.586165428161621,-0.5433599948883057,-0.22977584600448608
1715114120085321200,12.4343212890625,0.8962478637695312,-0.8213796615600586,-0.5520010590553284
1715114120095271200,12.444271240234375,0.04452800750732422,-0.8881993293762207,-0.7706354260444641
1715114120105221000,12.45422119140625,-0.8289356231689453,-0.8932428359985352,-0.8409862518310547
1715114120115171000,12.464171142578126,-1.7232098579406738,-0.9041032791137695,-0.8715231418609619
1715114120125121300,12.474121337890624,-2.4567317962646484,-0.8291687965393066,-0.7783962488174438
1715114120135071200,12.4840712890625,-2.996232509613037,-0.7644484043121338,-0.4593788683414459
1715114120145021200,12.494021240234375,-3.4613075256347656,-0.7629702091217041,-0.16345392167568207
1715114120154971100,12.50397119140625,-4.1348676681518555,-0.7700436115264893,0.011366307735443115
1715114120164921000,12.513921142578125,-5.058141708374023,-0.7739424705505371,0.05208960175514221
1715114120174871300,12.523871337890625,-5.762737274169922,-0.7272353172302246,0.02592223882675171
1715114120184821200,12.5338212890625,-6.080757141113281,-0.6815180778503418,0.04059895873069763
1715114120194771200,12.543771240234374,-6.0283098220825195,-0.4922952651977539,0.03832414746284485
1715114120204721200,12.55372119140625,-5.705491065979004,-0.32921838760375977,0.14455625414848328
1715114120214671000,12.563671142578125,-5.397964954376221,-0.35750293731689453,0.19826455414295197
1715114120224621300,12.573621337890625,-5.176334381103516,-0.24875736236572266,-0.09379279613494873
1715114120234571300,12.5835712890625,-4.753025054931641,-0.09067249298095703,-0.44438958168029785
1715114120244521200,12.593521240234375,-3.855189323425293,-0.11970090866088867,-0.49942225217819214
1715114120254471200,12.60347119140625,-2.797236442565918,-0.10532331466674805,-0.3839399814605713
1715114120264421000,12.613421142578124,-1.9933834075927734,-0.022307872772216797,-0.29815250635147095
1715114120274371000,12.62337109375,-1.5339913368225098,0.1487436294555664,-0.27286219596862793
1715114120284321000,12.633321044921875,-1.0757474899291992,0.41034364700317383,-0.28420209884643555
1715114120294271000,12.64327099609375,-0.46203136444091797,0.6828689575195312,-0.2726430892944336
1715114120304221000,12.653220947265625,0.12952518463134766,1.048241138458252,-0.07363241165876389
1715114120314171000,12.6631708984375,0.6555719375610352,1.449429988861084,0.3657257556915283
1715114120324120800,12.673120849609376,1.0544261932373047,1.7567458152770996,0.6331060528755188
1715114120334070800,12.68307080078125,1.3080272674560547,1.9548616409301758,0.4498956799507141
1715114120344020700,12.693020751953124,1.4458999633789062,1.9956846237182617,0.06746311485767365
1715114120353970700,12.702970703125,1.8029651641845703,1.8936047554016113,-0.24697363376617432
1715114120363920400,12.71292041015625,2.375096321105957,1.8043575286865234,-0.3733873963356018
1715114120373870300,12.722870361328125,2.7765674591064453,1.8202228546142578,-0.5810955166816711
1715114120383820300,12.7328203125,2.6500797271728516,2.040360450744629,-0.9555804133415222
1715114120393770200,12.742770263671876,2.023679733276367,2.372457981109619,-1.2728153467178345
1715114120403720200,12.75272021484375,1.1772403717041016,2.4592270851135254,-1.2553378343582153
1715114120413670100,12.762670166015624,0.772608757019043,2.3919758796691895,-1.0836286544799805
1715114120423620000,12.7726201171875,1.100015640258789,2.3714656829833984,-0.873235821723938
1715114120433570000,12.782570068359375,1.9451332092285156,2.2066612243652344,-0.6088026165962219
