time,seconds_elapsed,z,y,x
1715114107826875100,0.175875244140625,13.19205093383789,3.184288263320923,-0.21547815203666687
1715114107836845000,0.185844970703125,14.015656471252441,3.246537446975708,-0.40701428055763245
1715114107846795000,0.195794921875,14.437036514282227,3.1076738834381104,-0.6416460275650024
1715114107856745000,0.205744873046875,14.839262008666992,3.0166940689086914,-0.9672574996948242
1715114107866695000,0.21569482421875,15.193603515625,3.0837318897247314,-1.4508862495422363
1715114107876644900,0.225644775390625,15.351621627807617,3.5051112174987793,-1.6950948238372803
1715114107886594800,0.2355947265625,15.715539932250977,4.079719543457031,-1.3982137441635132
1715114107896544800,0.245544677734375,15.682021141052246,4.587290287017822,-0.6129156351089478
1715114107906494700,0.25549462890625,15.524003982543945,5.04218864440918,0.08619125932455063
1715114107916444700,0.265444580078125,14.518439292907715,5.109226226806641,0.4213795065879822
1715114107926394600,0.27539453125,12.78503704071045,4.888959884643555,0.028730420395731926
1715114107936344600,0.285344482421875,10.702081680297852,4.60165548324585,-0.7134721279144287
1715114107946294500,0.29529443359375,9.117119789123535,4.333505153656006,-1.3407529592514038
1715114107956244500,0.305244384765625,9.32302188873291,4.20421838760376,-1.5418659448623657
1715114107966194400,0.3151943359375,11.243170738220215,4.467580318450928,-1.723825216293335
1715114107976144400,0.325144287109375,12.36365795135498,4.338293552398682,-1.4317326545715332
1715114107986094300,0.33509423828125,12.023680686950684,3.490746021270752,-0.727837324142456
1715114107996044300,0.345044189453125,11.228805541992188,2.652775526046753,-0.7134721279144287
1715114108005994200,0.354994140625,10.002974510192871,2.3942017555236816,-0.9864110946655273
1715114108015944400,0.3649443359375,8.135497093200684,2.6575639247894287,-0.9672574996948242
1715114108025894400,0.374894287109375,6.828263282775879,3.5386300086975098,-0.38307225704193115
1715114108035844400,0.38484423828125,6.818686485290527,4.888959884643555,0.3687070608139038
1715114108045794600,0.394794677734375,6.904877662658691,4.879383087158203,0.7374141216278076
1715114108055744500,0.40474462890625,7.01979923248291,3.955221176147461,1.920149803161621
1715114108065694700,0.41469482421875,7.522581577301025,2.585737943649292,2.2218191623687744
1715114108075644700,0.424644775390625,8.054094314575195,1.1827356815338135,1.9488801956176758
1715114108085594600,0.4345947265625,8.552088737487793,0.7038952708244324,1.5514427423477173
1715114108095544800,0.444544921875,8.820239067077637,1.1635819673538208,1.173158884048462
1715114108105494800,0.454494873046875,8.547300338745117,2.1739351749420166,0.8331822156906128
1715114108115445000,0.464445068359375,7.948749542236328,3.0885202884674072,0.43095630407333374
1715114108125395000,0.47439501953125,7.158663272857666,3.5625722408294678,0.3256114423274994
1715114108135345000,0.484344970703125,6.7708024978637695,3.8738183975219727,-0.047884032130241394
1715114108145295000,0.494295166015625,7.115567684173584,4.352658748626709,-0.4836287498474121
1715114108155245000,0.5042451171875,7.101202011108398,4.486733913421631,-0.15801730751991272
1715114108165195300,0.5141953125,6.890512466430664,4.443638324737549,0.7182605266571045
1715114108175145200,0.524145263671875,6.517016887664795,4.228160381317139,1.403002142906189
1715114108185095200,0.53409521484375,6.215347766876221,3.936067581176758,1.599326729774475
1715114108195045400,0.54404541015625,5.736507415771484,3.734954595565796,1.656787633895874
1715114108204995300,0.553995361328125,5.257667064666748,3.7158010005950928,1.623268723487854
1715114108214945300,0.5639453125,5.224148273468018,3.8163576126098633,0.8475474119186401
1715114108224895500,0.5738955078125,4.458003520965576,3.529053211212158,-1.1444283723831177
1715114108234845400,0.583845458984375,4.745307922363281,3.6535518169403076,-1.867477297782898
1715114108244795600,0.593795654296875,5.827486991882324,4.165910720825195,-1.7190368175506592
1715114108254745600,0.60374560546875,6.2632317543029785,4.67827033996582,-1.5083470344543457
1715114108264695600,0.613695556640625,6.2392897605896,4.927267074584961,-0.7613561153411865
1715114108274645800,0.623645751953125,6.028599739074707,4.8267107009887695,-0.35434186458587646
1715114108284595700,0.633595703125,5.904101371765137,4.376600742340088,-0.7086837291717529
1715114108294546000,0.6435458984375,6.172252178192139,3.9025487899780273,-1.2832920551300049
1715114108304495900,0.653495849609375,6.775590896606445,3.845088005065918,-1.335964560508728
1715114108314445800,0.66344580078125,7.800309181213379,4.113238334655762,-1.359906554222107
1715114108324396000,0.67339599609375,9.313444137573242,4.424484729766846,-1.6615760326385498
1715114108334346000,0.683345947265625,10.141838073730469,4.395754337310791,-1.6855180263519287
1715114108344296200,0.693296142578125,10.491392135620117,4.2090067863464355,-0.6512228846549988
1715114108354246100,0.70324609375,10.802638053894043,3.931279182434082,1.8052281141281128
1715114108364196000,0.713196044921875,12.612654685974121,4.031835556030273,2.188300371170044
1715114108374146300,0.723146240234375,14.542381286621094,3.8067808151245117,-2.8443117141723633
1715114108384096300,0.73309619140625,16.644489288330078,4.1611223220825195,-6.229712963104248
1715114108394046500,0.74304638671875,15.85919189453125,4.170699596405029,-5.784391403198242
1715114108403996400,0.752996337890625,14.484920501708984,4.003105163574219,-4.6734819412231445
1715114108413946400,0.7629462890625,14.068328857421875,4.654327869415283,-4.01268196105957
1715114108423896600,0.772896484375,13.599065780639648,5.343858242034912,-3.07415509223938
1715114108433846500,0.782846435546875,13.685256958007812,5.535394191741943,-2.3032219409942627
1715114108443796500,0.79279638671875,14.235923767089844,5.1331682205200195,-2.1068975925445557
1715114108453746700,0.80274658203125,15.006855964660645,4.390965938568115,-2.212242364883423
1715114108463696600,0.812696533203125,16.23268699645996,3.9025487899780273,-2.1930887699127197
1715114108473646800,0.822646728515625,17.391481399536133,3.313575267791748,-2.4181437492370605
1715114108483596800,0.8325966796875,17.233463287353516,2.47560453414917,-2.935291290283203
1715114108493546800,0.842546630859375,15.739481925964355,2.078166961669922,-3.4955344200134277
1715114108503497000,0.8524970703125,13.73314094543457,2.1308395862579346,-3.6727054119110107
1715114108513447000,0.862447021484375,11.856086730957031,1.9345149993896484,-3.892971992492676
1715114108523397000,0.872397216796875,10.682928085327148,1.8722656965255737,-3.9887399673461914
1715114108533347000,0.88234716796875,10.050858497619629,1.886630892753601,-3.3949780464172363
1715114108543297000,0.892297119140625,9.763554573059082,1.9967641830444336,-2.1595699787139893
1715114108553247200,0.902247314453125,9.610325813293457,2.1787235736846924,-1.1540051698684692
1715114108563197200,0.912197265625,9.524134635925293,2.255337953567505,-0.3208230137825012
1715114108573147400,0.9221474609375,8.801085472106934,2.1930887699127197,0.31603461503982544
1715114108583097300,0.932097412109375,8.269572257995605,2.1930887699127197,0.47405192255973816
1715114108593047300,0.94204736328125,8.183381080627441,1.968033790588379,0.7565677165985107
1715114108602997500,0.95199755859375,8.17380428314209,1.6424223184585571,1.048660397529602
1715114108612947500,0.961947509765625,7.374141216278076,1.2018892765045166,0.9720458984375
1715114108622897700,0.971897705078125,7.920019149780273,1.8339585065841675,-0.038307227194309235
1715114108632847600,0.98184765625,8.130708694458008,1.8722656965255737,-0.6272808313369751
1715114108642797600,0.991797607421875,7.805097579956055,1.3072341680526733,-0.7852981686592102
1715114108652747800,1.001747802734375,7.249642848968506,1.0534487962722778,-0.8331822156906128
1715114108662697700,1.01169775390625,6.358999729156494,1.1300631761550903,-0.8571242094039917
1715114108672647700,1.021647705078125,5.166687488555908,1.3311761617660522,-0.727837324142456
1715114108682598000,1.031597900390625,4.381389141082764,1.6759412288665771,-0.3734954595565796
1715114108692547800,1.0415478515625,4.304774761199951,2.0254945755004883,0.06224924325942993
1715114108702498000,1.051498046875,4.7405195236206055,2.2026655673980713,0.33997663855552673
1715114108712448000,1.061447998046875,5.238513469696045,2.169146776199341,0.4357447028160095
1715114108722398000,1.07139794921875,6.143521785736084,1.7860745191574097,0.13407529890537262
1715114108732348200,1.08134814453125,6.129156112670898,1.9153614044189453,0.3208230137825012
1715114108742298000,1.091298095703125,6.234501361846924,2.4899697303771973,0.33518823981285095
1715114108752248300,1.101248291015625,6.603208065032959,2.868253707885742,0.2346317619085312
1715114108762198300,1.1111982421875,6.268020153045654,2.9927520751953125,0.26815059781074524
1715114108772148200,1.121148193359375,5.9088897705078125,3.332728862762451,0.5841852426528931
1715114108782098200,1.13109814453125,5.521028995513916,3.9839515686035156,1.0247182846069336
1715114108792048400,1.14104833984375,5.377377033233643,4.841075897216797,1.2641384601593018
1715114108801998300,1.150998291015625,5.48272180557251,5.4013190269470215,1.6519991159439087
1715114108811948300,1.1609482421875,5.621585369110107,5.928043365478516,1.7286136150360107
1715114108821898200,1.170898193359375,5.540182590484619,6.258443355560303,1.556231141090393
1715114108831848200,1.18084814453125,6.042964935302734,6.291962146759033,1.2641384601593018
1715114108841798100,1.190798095703125,7.417236804962158,6.224924564361572,1.1061211824417114
1715114108851748400,1.200748291015625,8.968679428100586,6.004657745361328,1.0678139925003052
1715114108861698300,1.2106982421875,10.558429718017578,5.746084213256836,1.0630255937576294
1715114108871648300,1.220648193359375,12.33013916015625,5.39174222946167,1.039083480834961
1715114108881598200,1.23059814453125,13.848062515258789,5.080495834350586,0.5985504388809204
1715114108891548200,1.240548095703125,15.184026718139648,5.032611846923828,-0.038307227194309235
1715114108901498400,1.250498291015625,16.089035034179688,5.200206279754639,-0.5889736413955688
1715114108911448300,1.2604482421875,16.366762161254883,5.406107425689697,-0.8762778043746948
1715114108921398300,1.270398193359375,16.15128517150879,5.521028995513916,-0.689530074596405
1715114108931348200,1.28034814453125,15.33725643157959,5.808333396911621,-0.11971008777618408
1715114108941298200,1.290298095703125,13.991714477539062,6.18182897567749,0.42616790533065796
1715114108951248400,1.300248291015625,12.746729850769043,6.406883716583252,0.5554547905921936
1715114108961198300,1.3101982421875,12.12902545928955,6.234501361846924,0.4644751250743866
1715114108971148300,1.320148193359375,12.315773963928223,5.564124584197998,0.40701428055763245
1715114108981098200,1.33009814453125,13.378799438476562,4.821922302246094,0.21547815203666687
1715114108991048200,1.340048095703125,14.79616641998291,4.041412353515625,-0.09576806426048279
1715114109000998100,1.349998046875,15.787365913391113,3.2992098331451416,-0.3687070608139038
1715114109010948400,1.3599482421875,15.91665267944336,2.5713725090026855,-0.608127236366272
1715114109020898300,1.369898193359375,14.911087989807129,2.1499931812286377,-0.545877993106842
1715114109030848300,1.37984814453125,13.168108940124512,2.231395959854126,0.023942016065120697
1715114109040798200,1.389798095703125,11.535264015197754,2.2170307636260986,0.8475474119186401
1715114109050748200,1.399748046875,11.219228744506836,1.8579005002975464,1.8100165128707886
1715114109060698400,1.409698486328125,11.487380027770996,1.5658079385757446,2.6623523235321045
1715114109070648300,1.4196484375,11.525687217712402,1.50355863571167,2.8395233154296875
1715114109080598300,1.429598388671875,11.133037567138672,1.2689268589019775,2.3702597618103027
1715114109090548500,1.439548583984375,10.500968933105469,0.8427590131759644,1.5849615335464478
1715114109100498400,1.44949853515625,9.797073364257812,0.4357447028160095,0.8092401623725891
1715114109110448600,1.45944873046875,9.121908187866211,0.23942017555236816,0.12449848651885986
1715114109120398600,1.469398681640625,8.365341186523438,0.31603461503982544,-0.38307225704193115
1715114109130348500,1.4793486328125,7.292738437652588,0.49320554733276367,-0.6560112833976746
1715114109140298800,1.489298828125,6.200982570648193,0.828393816947937,-0.6847416758537292
1715114109150248700,1.499248779296875,5.20978307723999,1.173158884048462,-0.5889736413955688
1715114109160199000,1.509198974609375,4.357447147369385,1.5466543436050415,-0.24899697303771973
1715114109170148900,1.51914892578125,3.840299606323242,2.0590133666992188,0.4357447028160095
1715114109180098800,1.529098876953125,3.7253777980804443,2.5665841102600098,1.2737152576446533
1715114109190049000,1.539049072265625,3.6583402156829834,2.868253707885742,1.8052281141281128
1715114109199999000,1.5489990234375,3.4811692237854004,3.0406360626220703,1.9967641830444336
1715114109209949000,1.558948974609375,3.28963303565979,3.2992098331451416,1.9153614044189453
1715114109219899100,1.568899169921875,3.1507694721221924,3.5960910320281982,1.723825216293335
1715114109229849000,1.57884912109375,3.3039982318878174,3.6296098232269287,1.3072341680526733
1715114109239799300,1.58879931640625,3.801992416381836,3.5386300086975098,0.8427590131759644
1715114109249749200,1.598749267578125,4.132391929626465,3.663128614425659,0.45489832758903503
1715114109259699200,1.60869921875,4.10366153717041,3.998316764831543,0.15801730751991272
1715114109269649400,1.6186494140625,3.9887399673461914,4.2329487800598145,-0.07182604819536209
1715114109279599400,1.628599365234375,4.434061527252197,4.290409564971924,-0.13407529890537262
1715114109289549600,1.638549560546875,5.4013190269470215,4.438849925994873,-0.043095629662275314
1715114109299499500,1.64849951171875,6.502651691436768,4.630385875701904,0.1628057211637497
1715114109309449500,1.658449462890625,7.182605266571045,4.730942726135254,0.2346317619085312
1715114109319399700,1.668399658203125,7.33583402633667,4.726154327392578,0.06224924325942993
1715114109329349600,1.678349609375,7.479485988616943,4.697423934936523,-0.40222588181495667
1715114109339299800,1.6882998046875,7.95832633972168,4.67827033996582,-1.015141487121582
1715114109349249800,1.698249755859375,9.074024200439453,4.529829502105713,-1.5610195398330688
1715114109359199700,1.70819970703125,10.553641319274902,4.290409564971924,-2.073378562927246
1715114109369150000,1.71814990234375,12.00452709197998,4.2760443687438965,-2.4803929328918457
1715114109379100000,1.728099853515625,12.861651420593262,4.395754337310791,-2.604891538619995
1715114109389050000,1.738050048828125,13.010091781616211,4.7405195236206055,-2.279279947280884
1715114109399000000,1.748,12.962207794189453,5.185841083526611,-1.8722656965255737
1715114109408950000,1.757949951171875,13.148955345153809,5.4444146156311035,-1.7094600200653076
1715114109418900200,1.767900146484375,13.421895027160645,5.559336185455322,-1.6280571222305298
1715114109428850200,1.77785009765625,13.436260223388672,5.688623428344727,-1.4508862495422363
1715114109438800100,1.787800048828125,13.105859756469727,5.985504150390625,-1.1827356815338135
1715114109448750300,1.797750244140625,12.717999458312988,6.378153324127197,-0.5793967843055725
1715114109458700300,1.8077001953125,12.555193901062012,6.670246124267578,0.05267243832349777
1715114109468650500,1.817650390625,13.053187370300293,6.761225700378418,0.5889736413955688
1715114109478600400,1.827600341796875,14.092270851135254,6.507440090179443,1.0869675874710083
1715114109488550400,1.83755029296875,15.571887969970703,5.832275390625,1.316810965538025
1715114109498500600,1.84750048828125,16.979679107666016,4.912901878356934,1.2306196689605713
1715114109508450600,1.857450439453125,17.396268844604492,3.9408559799194336,0.689530074596405
1715114109518400800,1.86740087890625,16.735469818115234,3.1938650608062744,-0.023942016065120697
1715114109528350700,1.877350830078125,15.140931129455566,2.6623523235321045,-0.8188169598579407
1715114109538300700,1.88730078125,13.21599292755127,2.3367409706115723,-1.5514427423477173
1715114109548251000,1.8972509765625,11.5065336227417,2.145204782485962,-1.886630892753601
1715114109558200800,1.907200927734375,10.156203269958496,2.097320795059204,-1.7717092037200928
1715114109568151000,1.917151123046875,9.260771751403809,2.140416383743286,-1.2545616626739502
1715114109578101000,1.92710107421875,8.738836288452148,2.1164743900299072,-0.6703764796257019
1715114109588051000,1.937051025390625,8.609549522399902,2.0254945755004883,-0.26336219906806946
1715114109598001200,1.947001220703125,8.858546257019043,1.7573440074920654,-0.06703764945268631
1715114109607951000,1.956951171875,9.265560150146484,1.4221558570861816,-0.023942016065120697
1715114109617901300,1.9669013671875,9.615114212036133,1.0869675874710083,-0.12449848651885986
1715114109627851300,1.976851318359375,9.849745750427246,0.790086567401886,-0.2298433631658554
1715114109637801200,1.98680126953125,9.567230224609375,0.5554547905921936,-0.33518823981285095
1715114109647751400,1.99675146484375,8.796297073364258,0.38307225704193115,-0.545877993106842
1715114109657701400,2.006701416015625,7.723694801330566,0.2106897532939911,-0.7709329724311829
1715114109667651300,2.0166513671875,6.799532890319824,0.5650315880775452,0.47884035110473633
1715114109677601500,2.0266015625,6.603208065032959,1.2066776752471924,1.9105730056762695
1715114109687551500,2.036551513671875,5.635950565338135,1.3072341680526733,0.2346317619085312
1715114109697501700,2.046501708984375,5.0469770431518555,1.4077905416488647,-1.316810965538025
1715114109707451600,2.05645166015625,3.955221176147461,1.4891934394836426,-0.9864110946655273
1715114109717401600,2.066401611328125,3.179499864578247,1.3646949529647827,-0.15801730751991272
1715114109727351800,2.076351806640625,3.2369606494903564,1.4508862495422363,-0.4118026793003082
1715114109737301800,2.0863017578125,3.3039982318878174,1.766920804977417,-1.1061211824417114
1715114109747252000,2.096251953125,3.1699230670928955,2.1116859912872314,-1.2641384601593018
1715114109757202000,2.106201904296875,3.313575267791748,2.298433542251587,-0.9433154463768005
1715114109767151900,2.11615185546875,4.050989151000977,2.6144683361053467,-0.6512228846549988
1715114109777102000,2.12610205078125,5.085284233093262,3.227383852005005,-0.26336219906806946
1715114109787052000,2.136052001953125,5.7125654220581055,3.8977603912353516,0.2106897532939911
1715114109797002200,2.146002197265625,5.9088897705078125,4.213795185089111,0.3016694188117981
1715114109806952200,2.1559521484375,6.584054470062256,4.381389141082764,-0.19632454216480255
1715114109816902100,2.165902099609375,7.594407558441162,4.548983097076416,-0.5985504388809204
1715114109826852400,2.175852294921875,8.719682693481445,4.874594688415527,-0.4836287498474121
1715114109836802300,2.18580224609375,9.988609313964844,5.228936672210693,0.07182604819536209
1715114109846752300,2.195752197265625,11.051634788513184,5.506663799285889,0.6560112833976746
1715114109856702500,2.205702392578125,12.368446350097656,5.6455278396606445,1.0965443849563599
1715114109866652400,2.21565234375,13.69962215423584,5.564124584197998,1.2689268589019775
1715114109876602600,2.2256025390625,14.839262008666992,5.372588634490967,1.0007762908935547
1715114109886552600,2.235552490234375,15.361198425292969,5.20978307723999,0.4596867263317108
1715114109896502500,2.24550244140625,15.720328330993652,5.027823448181152,-0.06703764945268631
1715114109906452700,2.25545263671875,16.361974716186523,4.8602294921875,-0.3208230137825012
1715114109916402700,2.265402587890625,17.176002502441406,4.568136692047119,-0.545877993106842
1715114109926353000,2.275352783203125,17.717092514038086,4.501099109649658,-1.0199298858642578
1715114109936302800,2.285302734375,17.530344009399414,4.611232280731201,-1.580173134803772
1715114109946252800,2.295252685546875,16.251840591430664,4.5825018882751465,-2.0925323963165283
1715114109956203000,2.305203125,14.551958084106445,4.9799394607543945,-2.0398597717285156
1715114109966153000,2.315153076171875,12.914323806762695,5.406107425689697,-1.6615760326385498
1715114109976103200,2.325103271484375,12.009315490722656,5.7125654220581055,-0.8619126081466675
1715114109986053000,2.33505322265625,11.583148002624512,6.042964935302734,0.05267243832349777
1715114109996003000,2.345003173828125,11.568782806396484,6.038176536560059,0.9768342971801758
1715114110005953300,2.354953369140625,12.06198787689209,5.612008571624756,1.5514427423477173
1715114110015903200,2.3649033203125,12.94305419921875,4.941632270812988,1.599326729774475
1715114110025853400,2.374853515625,13.397953033447266,4.137180328369141,1.2737152576446533
1715114110035803400,2.384803466796875,13.15853214263916,3.3470940589904785,1.0055646896362305
1715114110045753300,2.39475341796875,12.210428237915039,2.6240451335906982,0.8092401623725891
1715114110055703600,2.40470361328125,10.90798282623291,2.0207061767578125,0.4692635238170624
1715114110065653500,2.414653564453125,9.840168952941895,1.7286136150360107,0.3064578175544739
1715114110075603500,2.424603515625,9.289502143859863,1.6089035272598267,0.5985504388809204
1715114110085553700,2.4345537109375,9.241618156433105,1.4748282432556152,1.0199298858642578
1715114110095503600,2.444503662109375,9.337387084960938,1.2880805730819702,1.2545616626739502
1715114110105453800,2.454453857421875,9.227252960205078,1.139639973640442,1.3072341680526733
1715114110115403800,2.46440380859375,8.724471092224121,1.039083480834961,1.2545616626739502
1715114110125354000,2.47435400390625,7.881711959838867,1.0295066833496094,1.1492167711257935
1715114110135304000,2.484303955078125,7.067683219909668,1.1348515748977661,1.015141487121582
1715114110145254100,2.494254150390625,6.507440090179443,1.1300631761550903,0.9433154463768005
1715114110155204400,2.504204345703125,6.023811340332031,1.1252747774124146,0.7996633648872375
1715114110165154300,2.514154296875,5.4875102043151855,1.2880805730819702,0.5267243981361389
1715114110175104500,2.5241044921875,5.0900726318359375,1.4844050407409668,0.1628057211637497
1715114110185054500,2.534054443359375,4.836287498474121,1.623268723487854,0
1715114110195004700,2.544004638671875,4.73573112487793,1.723825216293335,-0.009576806798577309
1715114110204955000,2.553954833984375,4.716577529907227,1.8914192914962769,0.043095629662275314
1715114110214904800,2.56390478515625,4.67827033996582,2.140416383743286,0.1628057211637497
1715114110224855000,2.57385498046875,4.347870349884033,2.3367409706115723,0.2537853717803955
1715114110234805000,2.583804931640625,3.97916316986084,2.5761611461639404,0.3878606855869293
1715114110244755200,2.593755126953125,3.9169139862060547,2.978386878967285,0.6799532771110535
1715114110254705400,2.603705322265625,3.9887399673461914,3.4572272300720215,1.0678139925003052
1715114110264655400,2.6136552734375,4.098873138427734,3.8115692138671875,1.1061211824417114
1715114110274605600,2.62360546875,4.395754337310791,4.170699596405029,0.7230489253997803
1715114110284555500,2.633555419921875,4.750096321105957,4.587290287017822,0.40222588181495667
1715114110294505700,2.643505615234375,5.228936672210693,4.941632270812988,0.20111294090747833
1715114110304456000,2.6534560546875,6.086060523986816,5.17626428604126,0.13407529890537262
1715114110314406000,2.663406005859375,7.139509677886963,5.315127849578857,0.14365209639072418
1715114110324356000,2.673356201171875,8.054094314575195,5.492298603057861,-0.08140286058187485
1715114110334306000,2.68330615234375,8.829815864562988,5.813121795654297,-0.3016694188117981
1715114110344256300,2.69325634765625,9.797073364257812,5.980715751647949,-0.090979665517807
1715114110354206500,2.70320654296875,10.773907661437988,6.133944988250732,0.2537853717803955
1715114110364156400,2.713156494140625,11.477803230285645,6.335057735443115,0.5027823448181152
1715114110374106600,2.723106689453125,11.956643104553223,6.45476770401001,0.9002198576927185
1715114110384056600,2.733056640625,12.33013916015625,6.421248912811279,1.2832920551300049
1715114110394006800,2.7430068359375,12.60307788848877,6.2392897605896,1.216254472732544
1715114110403956700,2.752956787109375,12.660538673400879,5.904101371765137,0.7852981686592102
1715114110413906700,2.76290673828125,12.540828704833984,5.453991413116455,0.11971008777618408
1715114110423857000,2.77285693359375,12.526463508605957,5.128379821777344,-0.6751648783683777
1715114110433806800,2.782806884765625,12.751518249511719,5.104437828063965,-1.359906554222107
1715114110443757000,2.792757080078125,12.871228218078613,5.343858242034912,-1.6950948238372803
1715114110453707000,2.80270703125,12.751518249511719,5.736507415771484,-1.5658079385757446
1715114110463657000,2.812656982421875,12.344504356384277,6.205770969390869,-1.1492167711257935
1715114110473607200,2.822607177734375,11.942277908325195,6.584054470062256,-0.5602431893348694
1715114110483557000,2.83255712890625,11.63103199005127,6.8378400802612305,-0.023942016065120697
1715114110493507300,2.84250732421875,11.678915977478027,6.995857238769531,0.6703764796257019
1715114110503457300,2.852457275390625,12.449849128723145,6.876147270202637,1.3694833517074585
1715114110513407200,2.8624072265625,13.603854179382324,6.315904140472412,1.5945383310317993
1715114110523357400,2.872357421875,14.197615623474121,5.468356609344482,1.3263877630233765
1715114110533307400,2.882307373046875,13.97256088256836,4.639962673187256,0.8188169598579407
1715114110543257600,2.892257568359375,13.196839332580566,3.869029998779297,0.11013327538967133
1715114110553207600,2.90220751953125,12.066776275634766,3.2082302570343018,-0.790086567401886
1715114110563157500,2.912157470703125,10.955866813659668,2.8586769104003906,-1.6903064250946045
1715114110573107700,2.922107666015625,10.070012092590332,2.7772738933563232,-2.1547815799713135
1715114110583057700,2.9320576171875,9.385271072387695,2.829946517944336,-2.0590133666992188
1715114110593007900,2.9420078125,9.069235801696777,2.940079689025879,-1.4652514457702637
1715114110602957800,2.951957763671875,8.93037223815918,3.026270866394043,-0.689530074596405
1715114110612907800,2.96190771484375,9.050082206726074,2.9927520751953125,-0.043095629662275314
1715114110622858000,2.97185791015625,9.485827445983887,2.7102363109588623,0.4644751250743866
1715114110632808000,2.981807861328125,10.046070098876953,2.298433542251587,0.6847416758537292
1715114110642758000,2.9917578125,10.409989356994629,1.9776105880737305,0.7374141216278076
1715114110652708000,3.0017080078125,10.453084945678711,1.699883222579956,0.8092401623725891
1715114110662658000,3.011657958984375,10.113107681274414,1.50355863571167,0.7374141216278076
1715114110672608300,3.021608154296875,9.586383819580078,1.4077905416488647,0.5746083855628967
1715114110682558200,3.03155810546875,8.633491516113281,1.3311761617660522,0.33518823981285095
1715114110692508200,3.041508056640625,7.1921820640563965,1.3742717504501343,0.023942016065120697
1715114110702458400,3.051458251953125,5.655104637145996,1.5466543436050415,-0.3064578175544739
1715114110712408300,3.061408203125,4.314351558685303,1.7046716213226318,-0.5219359993934631
1715114110722358500,3.071358642578125,3.380612850189209,1.824381709098816,-0.608127236366272
1715114110732308500,3.08130859375,2.9688100814819336,1.9584569931030273,-0.4836287498474121
1715114110742258400,3.091258544921875,2.691082715988159,2.1787235736846924,-0.272938996553421
1715114110752208600,3.101208740234375,2.5330653190612793,2.494758129119873,0.09576806426048279
1715114110762158600,3.11115869140625,2.868253707885742,2.9688100814819336,0.7038952708244324
1715114110772108800,3.12110888671875,3.471592426300049,3.514688014984131,1.3503297567367554
1715114110782058800,3.131058837890625,4.23773717880249,4.055777549743652,1.7142484188079834
1715114110792008700,3.1410087890625,4.76924991607666,4.467580318450928,1.580173134803772
1715114110801959000,3.150958984375,5.0900726318359375,4.793191909790039,1.1540051698684692
1715114110811908900,3.160908935546875,5.434837818145752,5.142745018005371,0.751779317855835
1715114110821859000,3.170859130859375,5.760449409484863,5.525817394256592,0.3256114423274994
1715114110831809000,3.18080908203125,6.157886981964111,5.937620162963867,-0.10055647045373917
1715114110841759000,3.190759033203125,6.746860504150391,6.387730121612549,-0.19153612852096558
1715114110851709200,3.200709228515625,7.891288757324219,6.7708024978637695,0.38307225704193115
1715114110861659100,3.2106591796875,9.366117477416992,6.981492042541504,1.2258312702178955
1715114110871609000,3.220609130859375,10.78348445892334,6.957550048828125,1.580173134803772
1715114110881559300,3.230559326171875,12.071564674377441,6.789956092834473,1.4460978507995605
1715114110891509200,3.24050927734375,13.546393394470215,6.5696892738342285,1.4317326545715332
1715114110901459500,3.25045947265625,15.13614273071289,6.382941722869873,1.6903064250946045
1715114110911409400,3.260409423828125,16.740259170532227,6.277596950531006,1.699883222579956
1715114110921359400,3.270359375,17.79849624633789,5.999869346618652,1.4508862495422363
1715114110931309600,3.2803095703125,18.028339385986328,5.674258232116699,0.8667010068893433
1715114110941259500,3.290259521484375,17.176002502441406,5.252878665924072,0.26336219906806946
1715114110951209700,3.300209716796875,15.500061988830566,5.339069843292236,-0.4596867263317108
1715114110961159700,3.31015966796875,13.814543724060059,5.616796970367432,-0.6320692300796509
1715114110971109600,3.320109619140625,12.569559097290039,5.880159378051758,0.2298433631658554
1715114110981059800,3.330059814453125,11.91354751586914,6.631938934326172,1.278503656387329
1715114110991009800,3.340009765625,10.922348022460938,6.665457725524902,1.7717092037200928
1715114111000960000,3.3499599609375,10.093954086303711,6.009446144104004,1.7334020137786865
1715114111010910000,3.359909912109375,10.141838073730469,5.200206279754639,1.1300631761550903
1715114111020860000,3.36985986328125,10.280701637268066,4.333505153656006,0.4644751250743866
1715114111030810000,3.37981005859375,10.295066833496094,3.552995204925537,-0.12449848651885986
1715114111040760000,3.389760009765625,10.050858497619629,2.964021682739258,-0.2968810200691223
1715114111050710000,3.3997099609375,9.557653427124023,2.5522189140319824,0.004788403399288654
1715114111060660200,3.40966015625,9.083600997924805,2.1787235736846924,0.4692635238170624
1715114111070610200,3.419610107421875,8.710105895996094,1.900996208190918,0.9720458984375
1715114111080560400,3.429560302734375,8.413225173950195,1.8531121015548706,1.7381904125213623
1715114111090510300,3.43951025390625,8.212111473083496,1.5753847360610962,2.341529369354248
1715114111100460300,3.449460205078125,8.33182144165039,1.436521053314209,2.4133553504943848
1715114111110410500,3.459410400390625,9.165003776550293,1.6424223184585571,2.3032219409942627
1715114111120360400,3.4693603515625,9.476250648498535,1.4700398445129395,1.9249382019042969
1715114111130310700,3.479310546875,9.035717010498047,1.4077905416488647,1.3215993642807007
1715114111140260600,3.489260498046875,7.99184513092041,1.723825216293335,0.790086567401886
1715114111150210600,3.49921044921875,7.010222434997559,2.207453966140747,0.7182605266571045
1715114111160160800,3.509160888671875,6.071695327758789,2.8203697204589844,1.2258312702178955
1715114111170110700,3.51911083984375,5.449203014373779,3.3949780464172363,1.8483237028121948
1715114111180061000,3.52906103515625,5.061342239379883,3.533841609954834,2.1116859912872314
1715114111190011000,3.539010986328125,4.965574264526367,3.4141316413879395,1.7525556087493896
1715114111199960800,3.5489609375,5.286397457122803,3.3231520652770996,1.3838485479354858
1715114111209911000,3.5589111328125,5.7556610107421875,3.227383852005005,1.4173674583435059
1715114111219861000,3.568861083984375,5.995080947875977,3.19865345954895,1.3503297567367554
1715114111229811200,3.578811279296875,5.942408561706543,3.026270866394043,1.1971008777618408
1715114111239761200,3.58876123046875,5.736507415771484,3.0166940689086914,1.072602391242981
1715114111249711000,3.598711181640625,5.521028995513916,3.3518824577331543,0.9289502501487732
1715114111259661300,3.608661376953125,5.2672438621521,3.778050184249878,0.7134721279144287
1715114111269611300,3.618611328125,5.214571475982666,4.050989151000977,0.5027823448181152
1715114111279561200,3.628561279296875,5.319916248321533,4.218583583831787,0.35913026332855225
1715114111289511400,3.638511474609375,5.525817394256592,4.477157115936279,0.24899697303771973
1715114111299461400,3.64846142578125,5.779603004455566,4.76924991607666,0.16759411990642548
1715114111309411600,3.65841162109375,6.335057735443115,5.070919036865234,0.33039984107017517
1715114111319361500,3.668361572265625,7.378929615020752,5.30076265335083,0.7134721279144287
1715114111329311500,3.6783115234375,8.796297073364258,5.406107425689697,1.0199298858642578
1715114111339261700,3.68826171875,10.333374977111816,5.439626216888428,1.0007762908935547
1715114111349211600,3.698211669921875,11.530475616455078,5.463568210601807,0.7757213711738586
1715114111359161900,3.708161865234375,12.406753540039062,5.477933406829834,0.6033388376235962
1715114111369111800,3.71811181640625,13.014880180358887,5.434837818145752,0.4165911078453064
1715114111379061800,3.728061767578125,13.321338653564453,5.463568210601807,0.11013327538967133
1715114111389012000,3.738011962890625,13.431471824645996,5.458779811859131,-0.17238251864910126
1715114111398962000,3.7479619140625,13.469779014587402,5.123591423034668,-0.6368576288223267
1715114111408912100,3.757912109375,13.46020221710205,4.7405195236206055,-1.3886369466781616
1715114111418862000,3.767862060546875,13.560758590698242,4.558559894561768,-2.126051187515259
1715114111428812000,3.77781201171875,13.895946502685547,4.563348293304443,-2.609679937362671
1715114111438762200,3.78776220703125,14.015656471252441,4.692635536193848,-2.896984100341797
1715114111448712200,3.797712158203125,13.412318229675293,5.161899089813232,-2.8778305053710938
1715114111458662400,3.807662353515625,12.416330337524414,5.770026206970215,-2.6192567348480225
1715114111468612400,3.8176123046875,11.678915977478027,6.48828649520874,-1.6663644313812256
1715114111478562300,3.827562255859375,11.463438034057617,6.670246124267578,-0.4836287498474121
1715114111488512500,3.837512451171875,11.367670059204102,6.564900875091553,0.4644751250743866
1715114111498462500,3.84746240234375,11.458649635314941,6.435614109039307,1.259350061416626
1715114111508412400,3.857412353515625,11.980585098266602,6.1052141189575195,2.0877439975738525
1715114111518362600,3.867362548828125,12.531251907348633,5.458779811859131,2.5953147411346436
1715114111528312600,3.8773125,12.459425926208496,4.587290287017822,2.2026655673980713
1715114111538262800,3.8872626953125,11.54005241394043,3.7876269817352295,1.0247182846069336
1715114111548212700,3.897212646484375,9.974244117736816,3.2609026432037354,-0.19632454216480255
1715114111558162700,3.90716259765625,8.322244644165039,2.9161376953125,-1.1492167711257935
1715114111568113000,3.91711279296875,7.101202011108398,2.734178304672241,-1.8339585065841675
1715114111578062800,3.927062744140625,6.574477672576904,2.7533318996429443,-2.1356279850006104
1715114111588013000,3.937012939453125,6.842628479003906,2.868253707885742,-1.9057846069335938
1715114111597963000,3.946962890625,7.608773231506348,2.8778305053710938,-1.335964560508728
1715114111607913200,3.956913330078125,8.647856712341309,2.691082715988159,-0.8044517636299133
1715114111617863200,3.96686328125,9.739612579345703,2.403778553009033,-0.4118026793003082
1715114111627813400,3.9768134765625,10.505757331848145,2.0638017654418945,-0.17717093229293823
1715114111637763300,3.986763427734375,10.778696060180664,1.8052281141281128,-0.08619125932455063
1715114111647713500,3.996713623046875,10.754754066467285,1.6903064250946045,-0.07661445438861847
1715114111657663700,4.006663818359375,10.366893768310547,1.6280571222305298,-0.17717093229293823
1715114111667613700,4.01661376953125,9.653421401977539,1.5849615335464478,-0.4836287498474121
1715114111677564000,4.02656396484375,8.738836288452148,1.623268723487854,-0.7757213711738586
1715114111687513900,4.036513916015625,7.65186882019043,1.742978811264038,-0.9433154463768005
1715114111697464000,4.046464111328125,6.4834980964660645,1.8770540952682495,-1.0438719987869263
1715114111707414300,4.056414306640625,5.463568210601807,2.0590133666992188,-0.9624691009521484
1715114111717364200,4.0663642578125,4.659116744995117,2.2888567447662354,-0.7565677165985107
1715114111727314400,4.076314453125,4.094084739685059,2.5234885215759277,-0.47884035110473633
1715114111737264400,4.086264404296875,3.7397429943084717,2.849100112915039,-0.05267243832349777
1715114111747214600,4.096214599609375,3.667917013168335,3.2848446369171143,0.5123591423034668
1715114111757164800,4.106164794921875,3.9600095748901367,3.7493197917938232,1.0630255937576294
1715114111767114800,4.11611474609375,4.146757125854492,4.122815132141113,1.2210428714752197
1715114111777065000,4.12606494140625,4.122815132141113,4.534617900848389,0.9002198576927185
1715114111787015000,4.136014892578125,4.223371982574463,4.908113479614258,0.49320554733276367
1715114111796965000,4.145965087890625,4.577713489532471,5.185841083526611,0.19632454216480255
1715114111806915000,4.1559150390625,5.157110691070557,5.588066577911377,-0.043095629662275314
1715114111816865300,4.165865234375,5.880159378051758,6.100425720214844,-0.028730420395731926
1715114111826815500,4.1758154296875,6.833051681518555,6.469132900238037,0.181959331035614
1715114111836765400,4.185765380859375,7.8529815673828125,6.785167694091797,0.3447650372982025
1715114111846715600,4.195715576171875,9.17936897277832,6.995857238769531,0.47405192255973816
1715114111856665600,4.20566552734375,10.975020408630371,7.015010833740234,0.8379706144332886
1715114111866615800,4.21561572265625,12.899958610534668,6.8378400802612305,1.2832920551300049
1715114111876566000,4.22556591796875,14.528016090393066,6.5696892738342285,1.6280571222305298
1715114111886516000,4.235515869140625,15.840038299560547,6.27280855178833,1.8195933103561401
1715114111896466200,4.245466064453125,16.63970184326172,5.856217384338379,1.7764976024627686
1715114111906416000,4.255416015625,16.850391387939453,5.386953830718994,1.3551181554794312
1715114111916366000,4.265365966796875,16.59181785583496,4.999093055725098,0.4836287498474121
1715114111926316300,4.27531640625,15.978901863098145,4.802768707275391,-0.6751648783683777
1715114111936266200,4.285266357421875,14.858415603637695,4.7836151123046875,-1.3503297567367554
1715114111946216400,4.295216552734375,13.51766300201416,4.898536682128906,-1.3551181554794312
1715114111956166400,4.30516650390625,12.344504356384277,5.157110691070557,-1.0247182846069336
1715114111966116400,4.315116455078125,11.113883972167969,5.501875400543213,-0.5650315880775452
1715114111976066600,4.325066650390625,10.041281700134277,5.913678169250488,0.17717093229293823
1715114111986016500,4.3350166015625,9.466673851013184,6.086060523986816,1.048660397529602
1715114111995966700,4.344966796875,9.691728591918945,5.7556610107421875,1.4173674583435059
1715114112005916700,4.354916748046875,10.41956615447998,4.941632270812988,1.216254472732544
1715114112015866600,4.36486669921875,11.1474027633667,4.031835556030273,0.8427590131759644
1715114112025816800,4.37481689453125,11.640608787536621,3.0119056701660156,0.5123591423034668
1715114112035766800,4.384766845703125,11.865663528442383,2.121262788772583,0.33039984107017517
1715114112045716700,4.394716796875,11.75553035736084,1.5179238319396973,0.26815059781074524
1715114112055667000,4.4046669921875,11.401188850402832,1.1875240802764893,0.3208230137825012
1715114112065617000,4.414616943359375,11.094730377197266,1.115697979927063,0.45010992884635925
1715114112075567000,4.424567138671875,10.860098838806152,1.1204863786697388,0.5746083855628967
1715114112085517000,4.43451708984375,10.524910926818848,1.1348515748977661,0.5841852426528931
1715114112095467000,4.444467041015625,9.940725326538086,1.2545616626739502,0.5841852426528931
1715114112105417200,4.454417236328125,9.121908187866211,1.50355863571167,0.7374141216278076
1715114112115367200,4.4643671875,8.528146743774414,1.8722656965255737,1.0773907899856567
1715114112125317400,4.4743173828125,8.322244644165039,2.212242364883423,1.4652514457702637
1715114112135267300,4.484267333984375,8.14028549194336,2.427720546722412,1.623268723487854
1715114112145217300,4.49421728515625,7.627926826477051,2.6144683361053467,1.5753847360610962
1715114112155167500,4.50416748046875,7.038952827453613,2.7916390895843506,1.5275006294250488
1715114112165117400,4.514117431640625,6.435614109039307,2.8203697204589844,1.5131354331970215
1715114112175067600,4.524067626953125,5.774814605712891,2.8107926845550537,1.3886369466781616
1715114112185017600,4.534017578125,5.094861030578613,2.8347349166870117,1.158793568611145
1715114112194967600,4.543967529296875,4.5394062995910645,2.853888511657715,0.9624691009521484
1715114112204917800,4.553917724609375,3.9887399673461914,2.8826189041137695,0.7230489253997803
1715114112214867700,4.56386767578125,3.4093432426452637,3.07415509223938,0.45010992884635925
1715114112224818000,4.57381787109375,2.896984100341797,3.3662476539611816,0.2537853717803955
1715114112234768000,4.583767822265625,2.7054479122161865,3.711012601852417,0.15322890877723694
1715114112244717800,4.5937177734375,2.9257144927978516,3.907337188720703,0.16759411990642548
1715114112254668000,4.60366796875,3.1316158771514893,4.046200752258301,0.047884032130241394
1715114112264618000,4.613617919921875,3.529053211212158,4.3622355461120605,-0.09576806426048279
1715114112274568000,4.62356787109375,4.189853191375732,4.726154327392578,-0.1149216815829277
1715114112284518100,4.63351806640625,5.056553840637207,5.027823448181152,-0.090979665517807
1715114112294468000,4.643468017578125,6.004657745361328,5.3342814445495605,-0.10055647045373917
1715114112304418300,4.653418212890625,6.947973251342773,5.626373767852783,-0.1149216815829277
1715114112314368300,4.6633681640625,7.982268333435059,5.870582580566406,-0.08140286058187485
1715114112324318200,4.673318115234375,9.102754592895508,6.138733386993408,0.1628057211637497
1715114112334268400,4.683268310546875,10.448296546936035,6.402095317840576,0.6416460275650024
1715114112344218400,4.69321826171875,11.851298332214355,6.5696892738342285,1.2066776752471924
1715114112354168600,4.70316845703125,13.148955345153809,6.722918510437012,1.5466543436050415
1715114112364118500,4.713118408203125,14.068328857421875,6.746860504150391,1.53707754611969
1715114112374068500,4.723068359375,14.513650894165039,6.655880928039551,1.3455413579940796
1715114112384018700,4.733018798828125,14.235923767089844,6.521805286407471,0.9911994934082031
1715114112393968600,4.74296875,13.445837020874023,6.449979305267334,0.545877993106842
1715114112403918800,4.7529189453125,12.660538673400879,6.4164605140686035,0.038307227194309235
1715114112413868800,4.762868896484375,11.994950294494629,6.378153324127197,-0.5554547905921936
1715114112423818800,4.77281884765625,11.190498352050781,6.603208065032959,-1.3263877630233765
1715114112433769000,4.78276904296875,10.32858657836914,7.038952827453613,-1.987187385559082
1715114112443719000,4.792718994140625,9.672574996948242,7.321468830108643,-1.8052281141281128
1715114112453669000,4.802669189453125,9.801861763000488,7.42681360244751,-0.871489405632019
1715114112463619000,4.812619140625,10.922348022460938,7.441178798675537,0.4884171485900879
1715114112473569000,4.822569091796875,12.646173477172852,7.187393665313721,1.8626888990402222
1715114112483519200,4.832519287109375,14.302961349487305,6.722918510437012,2.7676970958709717
1715114112493469200,4.84246923828125,15.188815116882324,6.057330131530762,2.9257144927978516
1715114112503419100,4.852419189453125,15.021221160888672,5.07570743560791,2.2409727573394775
1715114112513369300,4.862369384765625,14.082694053649902,3.998316764831543,0.8379706144332886
1715114112523319300,4.8723193359375,12.780248641967773,3.1651346683502197,-0.7996633648872375
1715114112533269500,4.88226953125,11.362881660461426,2.6623523235321045,-2.255337953567505
1715114112543219500,4.892219482421875,9.897629737854004,2.499546527862549,-3.1651346683502197
1715114112553169400,4.90216943359375,8.647856712341309,2.5905263423919678,-3.35667085647583
1715114112563119600,4.91211962890625,8.058882713317871,2.8395233154296875,-2.7293899059295654
1715114112573069600,4.922069580078125,8.355764389038086,2.983175277709961,-1.6328455209732056
1715114112583019800,4.932019775390625,9.308655738830566,2.940079689025879,-0.5219359993934631
1715114112592969700,4.9419697265625,10.362105369567871,2.829946517944336,0.3974374830722809
1715114112602919700,4.951919677734375,11.05642318725586,2.628833532333374,1.0199298858642578
1715114112612870000,4.961869873046875,11.267112731933594,2.3032219409942627,1.278503656387329
1715114112622819800,4.97181982421875,10.96544361114502,2.030282974243164,1.2689268589019775
1715114112632770000,4.98177001953125,10.261548042297363,1.8387469053268433,0.9672574996948242
1715114112642720000,4.991719970703125,9.279925346374512,1.6376339197158813,0.44532153010368347
1715114112652670000,5.001669921875,8.259995460510254,1.4939818382263184,-0.1388636976480484
1715114112662620200,5.0116201171875,7.254431247711182,1.4748282432556152,-0.6177040338516235
1715114112672570000,5.021570068359375,6.291962146759033,1.5466543436050415,-0.9672574996948242
1715114112682520300,5.031520263671875,5.377377033233643,1.6280571222305298,-1.0821791887283325
1715114112692470300,5.04147021484375,4.491522312164307,1.824381709098816,-0.9768342971801758
1715114112702420200,5.051420166015625,3.8977603912353516,2.1978771686553955,-0.49320554733276367
1715114112712370400,5.061370361328125,3.7205893993377686,2.5474305152893066,0.26336219906806946
1715114112722320400,5.0713203125,3.5194764137268066,2.8203697204589844,0.6943184733390808
1715114112732270300,5.081270263671875,3.2321722507476807,3.184288263320923,0.5841852426528931
1715114112742220500,5.091220458984375,2.935291290283203,3.576937437057495,0.31603461503982544
1715114112752170500,5.10117041015625,2.7485435009002686,4.01268196105957,0.12928688526153564
1715114112762120400,5.111120361328125,2.959233283996582,4.400542736053467,0.019153613597154617
1715114112772070400,5.1210703125,3.4380736351013184,4.692635536193848,0.023942016065120697
1715114112782020400,5.131020263671875,3.955221176147461,5.324704647064209,0.07661445438861847
1715114112791970600,5.140970458984375,5.04218864440918,5.947196960449219,0.45010992884635925
1715114112801920500,5.15092041015625,6.603208065032959,6.296750545501709,0.9959878921508789
1715114112811870500,5.160870361328125,7.805097579956055,6.574477672576904,0.8762778043746948
1715114112821820400,5.1708203125,8.69095230102539,6.761225700378418,0.181959331035614
1715114112831770400,5.180770263671875,9.509769439697266,6.809109687805176,-0.1628057211637497
1715114112841720600,5.190720458984375,10.467450141906738,6.823474884033203,-0.17238251864910126
1715114112851670500,5.20067041015625,11.889605522155762,6.766014099121094,0.090979665517807
1715114112861620500,5.210620361328125,13.541604995727539,6.512228488922119,0.6272808313369751
1715114112871570400,5.2205703125,15.169661521911621,6.157886981964111,1.1013327836990356
1715114112881520400,5.230520263671875,16.53914451599121,5.7125654220581055,1.278503656387329
1715114112891470300,5.24047021484375,17.50640296936035,5.214571475982666,0.8427590131759644
1715114112901420500,5.250420654296875,17.525556564331055,4.879383087158203,-0.20111294090747833
1715114112911370500,5.26037060546875,16.390705108642578,4.716577529907227,-1.173158884048462
1715114112921320400,5.270320556640625,14.5806884765625,4.8267107009887695,-1.5849615335464478
1715114112931270400,5.2802705078125,12.938265800476074,5.142745018005371,-1.623268723487854
1715114112941220400,5.290220458984375,11.5065336227417,5.406107425689697,-1.4269442558288574
1715114112951170600,5.300170654296875,10.261548042297363,5.621585369110107,-1.1300631761550903
1715114112961120500,5.31012060546875,9.208099365234375,5.655104637145996,-0.689530074596405
1715114112971070500,5.320070556640625,8.652645111083984,5.39174222946167,-0.363918662071228
1715114112981020400,5.3300205078125,8.681375503540039,4.8602294921875,-0.31124621629714966
1715114112990970400,5.339970458984375,9.284713745117188,4.199429988861084,-0.17717093229293823
1715114113000920600,5.349920654296875,10.261548042297363,3.3710360527038574,0.3926490843296051
1715114113010870500,5.35987060546875,11.525687217712402,2.3798365592956543,1.0295066833496094
1715114113020820500,5.369820556640625,12.502521514892578,1.5322890281677246,1.3646949529647827
1715114113030770400,5.3797705078125,12.895170211791992,1.0965443849563599,1.4700398445129395
1715114113040720400,5.389720458984375,13.038822174072266,0.9193734526634216,1.623268723487854
1715114113050670600,5.399670654296875,13.172897338867188,0.8140285611152649,1.8291701078414917
1715114113060620500,5.40962060546875,13.077129364013672,0.8188169598579407,1.9153614044189453
1715114113070570800,5.41957080078125,12.492944717407227,1.039083480834961,1.8339585065841675
1715114113080520700,5.429520751953125,11.51611042022705,1.460463047027588,1.7381904125213623
1715114113090470700,5.439470703125,10.371682167053223,1.8722656965255737,1.6950948238372803
1715114113100420900,5.4494208984375,9.074024200439453,2.1930887699127197,1.580173134803772
1715114113110370800,5.459370849609375,7.805097579956055,2.5330653190612793,1.4939818382263184
1715114113120321000,5.469321044921875,6.675034523010254,2.8347349166870117,1.5514427423477173
1715114113130271000,5.47927099609375,5.841852188110352,3.0119056701660156,1.6663644313812256
1715114113140221000,5.489220947265625,5.147533416748047,3.117250680923462,1.6903064250946045
1715114113150171100,5.499171142578125,4.568136692047119,3.1699230670928955,1.5658079385757446
1715114113160121000,5.50912109375,4.055777549743652,3.222595453262329,1.3694833517074585
1715114113170071300,5.5190712890625,3.691859006881714,3.2082302570343018,1.1779472827911377
1715114113180021200,5.529021240234375,3.423708438873291,3.155557870864868,0.8475474119186401
1715114113189971200,5.53897119140625,3.2369606494903564,3.1890766620635986,0.42616790533065796
1715114113199921400,5.54892138671875,3.1459810733795166,3.265691041946411,0.05746084079146385
1715114113209871400,5.558871337890625,3.1747114658355713,3.428496837615967,-0.11013327538967133
1715114113219821600,5.568821533203125,3.1220390796661377,3.7014358043670654,-0.1628057211637497
1715114113229771500,5.578771484375,3.179499864578247,4.050989151000977,-0.28730419278144836
1715114113239721500,5.588721435546875,3.5242648124694824,4.352658748626709,-0.5219359993934631
1715114113249671700,5.598671630859375,4.01268196105957,4.6734819412231445,-0.7613561153411865
1715114113259621600,5.60862158203125,4.620809078216553,5.037400245666504,-0.8667010068893433
1715114113269571600,5.618571533203125,5.080495834350586,5.4013190269470215,-0.7230489253997803
1715114113279521800,5.628521728515625,5.497087001800537,5.789179801940918,-0.4692635238170624
1715114113289471700,5.6384716796875,6.320692539215088,6.2392897605896,-0.26815059781074524
1715114113299422000,5.648421875,7.766790390014648,6.598419666290283,0.014365210197865963
1715114113309372000,5.658371826171875,9.90241813659668,6.708553314208984,0.31124621629714966
1715114113319321900,5.66832177734375,12.172121047973633,6.588842868804932,0.31603461503982544
1715114113329272000,5.67827197265625,14.049175262451172,6.3733649253845215,-0.08140286058187485
1715114113339222000,5.688221923828125,15.155296325683594,6.076483726501465,-0.646434485912323
1715114113349172200,5.698172119140625,15.24627685546875,5.779603004455566,-1.479616641998291
1715114113359122200,5.7081220703125,14.753070831298828,5.578489780426025,-2.346317768096924
1715114113369072000,5.718072021484375,14.135366439819336,5.449203014373779,-2.892195701599121
1715114113379022300,5.728022216796875,13.532028198242188,5.363011837005615,-3.098097085952759
1715114113388972300,5.73797216796875,13.211204528808594,5.477933406829834,-3.0550012588500977
1715114113398922500,5.747922607421875,12.995726585388184,5.750872611999512,-3.0550012588500977
1715114113408872400,5.75787255859375,12.334927558898926,6.167463779449463,-3.0550012588500977
1715114113418822400,5.767822509765625,11.286267280578613,6.8043212890625,-2.6815059185028076
1715114113428772600,5.777772705078125,9.955090522766113,7.450755596160889,-1.9632453918457031
1715114113438722600,5.78772265625,8.863334655761719,7.987056732177734,-1.2880805730819702
1715114113448672800,5.7976728515625,8.379706382751465,8.159439086914062,-0.608127236366272
1715114113458622700,5.807622802734375,8.925583839416504,7.905653953552246,0.038307227194309235
1715114113468572700,5.81757275390625,10.682928085327148,7.316680431365967,0.5650315880775452
1715114113478523000,5.82752294921875,13.024456977844238,6.354211330413818,0.8427590131759644
1715114113488472800,5.837472900390625,14.963760375976562,5.152322292327881,0.5363011956214905
1715114113498422800,5.8474228515625,15.365986824035645,3.931279182434082,-0.545877993106842
1715114113508373000,5.857373046875,14.082694053649902,3.0166940689086914,-2.0254945755004883
1715114113518323000,5.867322998046875,11.93748950958252,2.4851813316345215,-3.3039982318878174
1715114113528273200,5.877273193359375,9.734824180603027,2.250549554824829,-3.998316764831543
1715114113538223000,5.88722314453125,7.982268333435059,2.365471363067627,-4.07014274597168
1715114113548173000,5.897173095703125,6.890512466430664,2.7054479122161865,-3.5960910320281982
1715114113558123300,5.907123291015625,6.8809356689453125,3.045424461364746,-2.5761611461639404
1715114113568073200,5.9170732421875,8.001421928405762,3.0837318897247314,-1.2737152576446533
1715114113578023400,5.9270234375,9.634267807006836,2.8634653091430664,-0.3208230137825012
1715114113587973400,5.936973388671875,11.118672370910645,2.4851813316345215,0.08619125932455063
1715114113597923300,5.94692333984375,11.923124313354492,2.011129379272461,0.16759411990642548
1715114113607873500,5.95687353515625,11.760318756103516,1.599326729774475,0.07182604819536209
1715114113617823500,5.966823486328125,10.845733642578125,1.3215993642807007,-0.31124621629714966
1715114113627773700,5.976773681640625,9.667786598205566,1.0965443849563599,-0.7996633648872375
1715114113637723600,5.9867236328125,8.528146743774414,1.0247182846069336,-1.0965443849563599
1715114113647673600,5.996673583984375,7.546523571014404,1.1875240802764893,-1.039083480834961
1715114113657623800,6.006623779296875,6.627150535583496,1.4700398445129395,-0.7805097699165344
1715114113667573800,6.01657373046875,5.693411827087402,1.8052281141281128,-0.44532153010368347
1715114113677524000,6.02652392578125,4.850652694702148,2.145204782485962,-0.06703764945268631
1715114113687474000,6.036473876953125,3.998316764831543,2.4612393379211426,0.2825157940387726
1715114113697424000,6.046423828125,3.2321722507476807,2.82515811920166,0.5363011956214905
1715114113707374000,6.0563740234375,2.6862943172454834,3.2609026432037354,0.8188169598579407
1715114113717324000,6.066323974609375,2.389413356781006,3.711012601852417,1.0773907899856567
1715114113727274000,6.07627392578125,2.3942017555236816,4.199429988861084,1.2497732639312744
1715114113737224200,6.08622412109375,2.6001031398773193,4.630385875701904,1.3838485479354858
1715114113747174100,6.096174072265625,2.8586769104003906,5.0900726318359375,1.4891934394836426
1715114113757124400,6.106124267578125,3.184288263320923,5.578489780426025,1.5658079385757446
1715114113767074300,6.11607421875,3.8307228088378906,6.004657745361328,1.5658079385757446
1715114113777024300,6.126024169921875,4.807557106018066,6.3302693367004395,1.3838485479354858
1715114113786974500,6.135974365234375,6.042964935302734,6.57926607131958,1.039083480834961
1715114113796924400,6.14592431640625,7.398083209991455,6.833051681518555,0.6703764796257019
1715114113806874400,6.155874267578125,8.370129585266113,6.981492042541504,0.4213795065879822
1715114113816824300,6.16582421875,9.23682975769043,7.0341644287109375,0.21547815203666687
1715114113826774500,6.1757744140625,10.165780067443848,7.062894821166992,0.24420857429504395
1715114113836724500,6.185724365234375,11.48259162902832,7.0341644287109375,0.49799394607543945
1715114113846674400,6.19567431640625,13.172897338867188,6.933608055114746,0.9193734526634216
1715114113856624400,6.205624267578125,14.7387056350708,6.670246124267578,1.3982137441635132
1715114113866574300,6.21557421875,15.91665267944336,6.354211330413818,1.4987702369689941
1715114113876524300,6.225524169921875,16.64927864074707,5.928043365478516,1.048660397529602
1715114113886474500,6.235474609375,16.879121780395508,5.439626216888428,0.23942017555236816
1715114113896424400,6.245424560546875,16.419435501098633,5.128379821777344,-0.8475474119186401
1715114113906374400,6.25537451171875,15.260642051696777,5.17626428604126,-1.7286136150360107
1715114113916324400,6.265324462890625,13.546393394470215,5.434837818145752,-1.9919757843017578
1715114113926274300,6.2752744140625,11.760318756103516,5.726930618286133,-1.7908629179000854
1715114113936224500,6.285224609375,10.362105369567871,5.990292549133301,-1.3407529592514038
1715114113946174500,6.295174560546875,9.342175483703613,6.167463779449463,-0.7613561153411865
1715114113956124400,6.30512451171875,8.676587104797363,6.14831018447876,-0.1388636976480484
1715114113966074400,6.315074462890625,8.614337921142578,5.793968200683594,0.28730419278144836
1715114113976024300,6.3250244140625,9.318233489990234,5.1331682205200195,0.37828385829925537
1715114113985974500,6.334974609375,10.362105369567871,4.32871675491333,0.19632454216480255
1715114113995924500,6.344924560546875,11.104307174682617,3.5003228187561035,-0.12449848651885986
1715114114005874400,6.35487451171875,11.281478881835938,2.580949544906616,-0.6033388376235962
1715114114015824400,6.364824462890625,10.951078414916992,1.7908629179000854,-1.173158884048462
1715114114025774300,6.3747744140625,10.462661743164062,1.3838485479354858,-1.5179238319396973
1715114114035724300,6.384724365234375,10.515334129333496,1.278503656387329,-1.3311761617660522
1715114114045674500,6.394674560546875,11.338939666748047,1.235408067703247,-0.689530074596405
1715114114055624400,6.40462451171875,12.287043571472168,1.1827356815338135,-0.1149216815829277
1715114114065574400,6.414574462890625,12.842497825622559,1.1540051698684692,0.16759411990642548
1715114114075524400,6.4245244140625,12.684480667114258,1.1779472827911377,0.21547815203666687
1715114114085474300,6.434474365234375,11.884817123413086,1.3455413579940796,0.07661445438861847
1715114114095424500,6.444424560546875,10.84094524383545,1.7094600200653076,-0.043095629662275314
1715114114105374500,6.45437451171875,9.926360130310059,2.0446481704711914,-0.06224924325942993
1715114114115324400,6.464324462890625,9.188945770263672,2.293645143508911,0.05746084079146385
1715114114125274400,6.4742744140625,8.346187591552734,2.5474305152893066,0.26336219906806946
1715114114135224300,6.484224365234375,7.594407558441162,2.806004285812378,0.4884171485900879
1715114114145174500,6.494174560546875,7.0341644287109375,2.935291290283203,0.7038952708244324
1715114114155124500,6.50412451171875,6.507440090179443,3.0166940689086914,0.8140285611152649
1715114114165074400,6.514074462890625,5.880159378051758,3.1076738834381104,0.8810662031173706
1715114114175024400,6.5240244140625,5.272032260894775,3.1699230670928955,1.0199298858642578
1715114114184974300,6.533974365234375,4.592078685760498,3.2178070545196533,1.1540051698684692
1715114114194924300,6.54392431640625,3.97916316986084,3.3662476539611816,1.2018892765045166
1715114114204874500,6.55387451171875,3.466804027557373,3.620033025741577,1.235408067703247
1715114114214824400,6.563824462890625,3.064578056335449,3.9217023849487305,1.259350061416626
1715114114224774400,6.5737744140625,2.7246015071868896,4.280832767486572,1.2210428714752197
1715114114234724400,6.583724365234375,2.518700122833252,4.668693542480469,1.1013327836990356
1715114114244674600,6.593674560546875,2.5522189140319824,5.080495834350586,0.9433154463768005
1715114114254624500,6.60362451171875,2.7772738933563232,5.439626216888428,0.7709329724311829
1715114114264574500,6.613574462890625,3.0406360626220703,5.736507415771484,0.545877993106842
1715114114274524700,6.623524658203125,3.4524388313293457,5.995080947875977,0.35434186458587646
1715114114284474600,6.633474609375,4.151545524597168,6.14831018447876,0.2059013396501541
1715114114294424800,6.6434248046875,5.329493045806885,6.191405773162842,-0.009576806798577309
1715114114304374800,6.653374755859375,6.890512466430664,6.291962146759033,-0.08619125932455063
1715114114314324700,6.66332470703125,8.686163902282715,6.354211330413818,0.13407529890537262
1715114114324275000,6.67327490234375,10.472238540649414,6.3063273429870605,0.3926490843296051
1715114114334225000,6.683224853515625,12.109871864318848,6.196194171905518,0.37828385829925537
1715114114344175000,6.693175048828125,13.46020221710205,5.9088897705078125,0.05746084079146385
1715114114354125000,6.703125,14.231135368347168,5.544970989227295,-0.5602431893348694
1715114114364075000,6.713074951171875,14.484920501708984,5.319916248321533,-1.50355863571167
1715114114374025200,6.723025146484375,14.494497299194336,5.195417881011963,-2.432508945465088
1715114114383975200,6.73297509765625,14.666879653930664,5.085284233093262,-3.2369606494903564
1715114114393925000,6.742925048828125,14.939818382263184,5.190629482269287,-3.9264907836914062
1715114114403875300,6.752875244140625,14.686033248901367,5.688623428344727,-4.223371982574463
1715114114413825300,6.7628251953125,13.929465293884277,6.406883716583252,-3.9456443786621094
1715114114423775500,6.772775390625,12.914323806762695,7.024587631225586,-3.2848446369171143
1715114114433725400,6.782725341796875,12.27267837524414,7.417236804962158,-2.4468741416931152
1715114114443675400,6.79267529296875,12.334927558898926,7.407660007476807,-1.6041151285171509
1715114114453625600,6.80262548828125,12.895170211791992,7.187393665313721,-0.8906430602073669
1715114114463575600,6.812575439453125,13.776236534118652,6.828263282775879,-0.272938996553421
1715114114473525800,6.82252587890625,14.379575729370117,6.196194171905518,0.20111294090747833
1715114114483475700,6.832475830078125,13.929465293884277,5.4444146156311035,0.14365209639072418
1715114114493425700,6.84242578125,12.469002723693848,4.821922302246094,-0.5410895943641663
1715114114503376000,6.8523759765625,10.63504409790039,4.410119533538818,-1.3455413579940796
1715114114513325800,6.862325927734375,8.868123054504395,4.189853191375732,-1.9153614044189453
1715114114523276000,6.872276123046875,7.489062786102295,3.998316764831543,-2.408566951751709
1715114114533226000,6.88222607421875,6.746860504150391,3.8738183975219727,-2.734178304672241
1715114114543176000,6.892176025390625,6.517016887664795,3.7876269817352295,-2.7485435009002686
1715114114553126100,6.902126220703125,6.732495307922363,3.687070608139038,-2.4181437492370605
1715114114563076000,6.912076171875,7.3023152351379395,3.4189200401306152,-1.9297266006469727
1715114114573026300,6.9220263671875,7.982268333435059,2.935291290283203,-1.5083470344543457
1715114114582976300,6.931976318359375,8.619126319885254,2.513911724090576,-1.2401964664459229
1715114114592926200,6.94192626953125,9.05487060546875,2.1547815799713135,-0.9816226959228516
1715114114602876400,6.95187646484375,9.222464561462402,1.900996208190918,-0.727837324142456
1715114114612826400,6.961826416015625,9.246406555175781,1.6519991159439087,-0.6560112833976746
1715114114622776300,6.9717763671875,9.078812599182129,1.4269442558288574,-0.7852981686592102
1715114114632726500,6.9817265625,8.614337921142578,1.3407529592514038,-0.9911994934082031
1715114114642676500,6.991676513671875,7.814674377441406,1.3838485479354858,-1.1444283723831177
1715114114652626700,7.001626708984375,6.718130111694336,1.4700398445129395,-1.2114660739898682
1715114114662576600,7.01157666015625,5.530605792999268,1.5945383310317993,-1.2832920551300049
1715114114672526600,7.021526611328125,4.649539470672607,1.7573440074920654,-1.2401964664459229
1715114114682476500,7.0314765625,4.146757125854492,2.011129379272461,-0.9433154463768005
1715114114692426500,7.041426513671875,3.931279182434082,2.3511061668395996,-0.43095630407333374
1715114114702376700,7.051376708984375,3.821146011352539,2.6671407222747803,0.090979665517807
1715114114712326700,7.06132666015625,3.7014358043670654,3.0119056701660156,0.5027823448181152
1715114114722276600,7.071276611328125,3.4763808250427246,3.4572272300720215,0.6991068720817566
1715114114732226600,7.0812265625,3.308786630630493,3.950432777404785,0.7661445140838623
1715114114742176500,7.091176513671875,3.380612850189209,4.477157115936279,0.727837324142456
1715114114752126700,7.101126708984375,3.6727054119110107,5.032611846923828,0.6224924325942993
1715114114762076700,7.11107666015625,4.1611223220825195,5.7125654220581055,0.6416460275650024
1715114114772026600,7.121026611328125,5.080495834350586,6.248866558074951,0.7230489253997803
1715114114781976600,7.1309765625,6.282385349273682,6.5696892738342285,0.7038952708244324
1715114114791926500,7.140926513671875,7.675810813903809,6.809109687805176,0.569819986820221
1715114114801876500,7.15087646484375,9.006986618041992,6.885724067687988,0.608127236366272
1715114114811826700,7.16082666015625,10.108319282531738,6.947973251342773,0.608127236366272
1715114114821776600,7.170776611328125,11.171344757080078,7.12035608291626,0.646434485912323
1715114114831726600,7.1807265625,12.449849128723145,7.206547260284424,0.8858546018600464
1715114114841676500,7.190676513671875,13.891158103942871,7.158663272857666,1.0773907899856567
1715114114851626500,7.20062646484375,15.294160842895508,6.933608055114746,1.1061211824417114
1715114114861576700,7.21057666015625,16.40028190612793,6.636727333068848,0.9241618514060974
1715114114871526700,7.220526611328125,16.859968185424805,6.277596950531006,0.44532153010368347
1715114114881476600,7.2304765625,16.95573616027832,5.875370979309082,-0.06224924325942993
1715114114891426600,7.240426513671875,16.927005767822266,5.430049419403076,-0.4836287498474121
1715114114901376500,7.25037646484375,16.711528778076172,5.070919036865234,-0.9481038451194763
1715114114911326700,7.26032666015625,15.562311172485352,4.9799394607543945,-1.4700398445129395
1715114114921276700,7.270276611328125,13.445837020874023,5.319916248321533,-1.766920804977417
1715114114931226600,7.2802265625,10.970232009887695,5.841852188110352,-1.5083470344543457
1715114114941176600,7.290176513671875,9.126696586608887,6.138733386993408,-1.0295066833496094
1715114114951126500,7.30012646484375,8.212111473083496,6.368576526641846,-0.5506663918495178
1715114114961076500,7.310076416015625,7.781155586242676,6.4164605140686035,-0.1149216815829277
1715114114971026700,7.320026611328125,7.8098859786987305,6.138733386993408,0.33039984107017517
1715114114980976600,7.3299765625,8.485051155090332,5.506663799285889,0.7038952708244324
1715114114990926600,7.339926513671875,9.77791976928711,4.807557106018066,0.9050082564353943
1715114115000876500,7.34987646484375,10.927136421203613,4.137180328369141,0.933738648891449
1715114115010826500,7.359826416015625,11.410765647888184,3.4811692237854004,0.8810662031173706
1715114115020776700,7.369776611328125,11.238382339477539,2.8586769104003906,0.6512228846549988
1715114115030726700,7.3797265625,10.678139686584473,2.427720546722412,0.4692635238170624
1715114115040676600,7.389676513671875,10.256759643554688,2.1787235736846924,0.6272808313369751
1715114115050626600,7.39962646484375,10.132261276245117,2.10210919380188,1.0295066833496094
1715114115060576500,7.409576416015625,10.32858657836914,2.1308395862579346,1.4317326545715332
1715114115070526700,7.419526611328125,10.496180534362793,2.10210919380188,1.656787633895874
1715114115080476700,7.4294765625,10.347740173339844,2.011129379272461,1.5418659448623657
1715114115090426600,7.439426513671875,9.940725326538086,2.049436569213867,1.2066776752471924
1715114115100376600,7.44937646484375,9.399636268615723,2.164358377456665,0.9002198576927185
1715114115110326500,7.459326416015625,8.78193187713623,2.279279947280884,0.6368576288223267
1715114115120276500,7.4692763671875,8.212111473083496,2.3798365592956543,0.47405192255973816
1715114115130226700,7.479226806640625,7.637503623962402,2.4660277366638184,0.44532153010368347
1715114115140176600,7.4891767578125,6.947973251342773,2.557007312774658,0.40222588181495667
1715114115150126600,7.499126708984375,6.224924564361572,2.6671407222747803,0.4165911078453064
1715114115160076500,7.50907666015625,5.535394191741943,2.849100112915039,0.6320692300796509
1715114115170026500,7.519026611328125,4.841075897216797,2.9927520751953125,1.0199298858642578
1715114115179976700,7.528976806640625,4.146757125854492,3.117250680923462,1.3934253454208374
1715114115189926700,7.5389267578125,3.4620156288146973,3.251325845718384,1.599326729774475
1715114115199876600,7.548876708984375,2.7293899059295654,3.3901896476745605,1.599326729774475
1715114115209826600,7.55882666015625,2.030282974243164,3.576937437057495,1.436521053314209
1715114115219776500,7.568776611328125,1.6519991159439087,3.797203779220581,1.139639973640442
1715114115229726700,7.578726806640625,1.824381709098816,3.993528366088867,0.8379706144332886
1715114115239676700,7.5886767578125,2.1978771686553955,4.156333923339844,0.49320554733276367
1715114115249626600,7.598626708984375,2.5905263423919678,4.414907932281494,0.05267243832349777
1715114115259576600,7.60857666015625,3.1507694721221924,4.702212333679199,-0.28730419278144836
1715114115269526500,7.618526611328125,3.9217023849487305,5.051765441894531,-0.37828385829925537
1715114115279476500,7.6284765625,4.817133903503418,5.497087001800537,-0.5410895943641663
1715114115289426700,7.6384267578125,5.803544998168945,5.880159378051758,-0.5410895943641663
1715114115299376600,7.648376708984375,6.799532890319824,6.253654956817627,-0.2825157940387726
1715114115309326600,7.65832666015625,8.169015884399414,6.660669326782227,0.2059013396501541
1715114115319276500,7.668276611328125,9.945513725280762,6.962338447570801,1.115697979927063
1715114115329226500,7.6782265625,11.549629211425781,7.264008045196533,1.987187385559082
1715114115339176700,7.6881767578125,12.923900604248047,7.402871608734131,2.2840683460235596
1715114115349126700,7.698126708984375,14.13057804107666,7.1251444816589355,1.9057846069335938
1715114115359076600,7.70807666015625,14.954183578491211,6.564900875091553,0.9624691009521484
1715114115369026600,7.718026611328125,15.313314437866211,6.057330131530762,-0.2825157940387726
1715114115378976500,7.7279765625,15.476119995117188,5.6455278396606445,-1.3311761617660522
1715114115388926700,7.7379267578125,15.365986824035645,5.324704647064209,-2.0638017654418945
1715114115398876700,7.747876708984375,15.184026718139648,5.324704647064209,-2.518700122833252
1715114115408826600,7.75782666015625,14.43224811553955,5.635950565338135,-2.715024709701538
1715114115418776600,7.767776611328125,13.206416130065918,6.287173748016357,-2.8778305053710938
1715114115428726500,7.7777265625,11.894393920898438,7.096413612365723,-2.5091233253479004
1715114115438676500,7.787676513671875,10.917559623718262,7.8098859786987305,-1.4700398445129395
1715114115448626700,7.797626708984375,10.472238540649414,8.197746276855469,-0.40701428055763245
1715114115458576600,7.80757666015625,10.51054573059082,8.169015884399414,0.4836287498474121
1715114115468526600,7.817526611328125,11.35809326171875,7.824251174926758,1.2018892765045166
1715114115478476500,7.8274765625,12.871228218078613,7.062894821166992,1.800439715385437
1715114115488426500,7.837426513671875,14.015656471252441,6.028599739074707,2.0254945755004883
1715114115498376700,7.847376708984375,13.886369705200195,4.960785865783691,1.292868971824646
1715114115508326700,7.85732666015625,12.751518249511719,4.165910720825195,-0.13407529890537262
1715114115518276600,7.867276611328125,11.176133155822754,3.643975019454956,-1.3838485479354858
1715114115528226600,7.8772265625,9.500192642211914,3.332728862762451,-2.322375535964966
1715114115538176500,7.887176513671875,8.010998725891113,3.2992098331451416,-2.7676970958709717
1715114115548126700,7.897126708984375,7.311892032623291,3.4955344200134277,-2.695871114730835
1715114115558076700,7.90707666015625,7.6997528076171875,3.667917013168335,-1.9776105880737305
1715114115568026600,7.917026611328125,8.777143478393555,3.663128614425659,-0.7086837291717529
1715114115577976600,7.9269765625,10.079588890075684,3.490746021270752,0.49799394607543945
1715114115587926500,7.936926513671875,11.075576782226562,3.227383852005005,1.4317326545715332
1715114115597876500,7.94687646484375,11.597513198852539,2.8778305053710938,1.8052281141281128
1715114115607826700,7.95682666015625,11.865663528442383,2.4372973442077637,1.7621324062347412
1715114115617776600,7.966776611328125,11.669339179992676,2.078166961669922,1.4221558570861816
1715114115627726600,7.9767265625,10.979808807373047,1.7717092037200928,0.8858546018600464
1715114115637676800,7.9866767578125,9.835380554199219,1.4939818382263184,0.35913026332855225
1715114115647626800,7.996626708984375,8.451532363891602,1.3407529592514038,-0.15322890877723694
1715114115657576700,8.00657666015625,6.9910688400268555,1.3024457693099976,-0.727837324142456
1715114115667527000,8.01652685546875,5.602431774139404,1.3311761617660522,-1.235408067703247
1715114115677476900,8.026476806640625,4.371812343597412,1.3886369466781616,-1.4317326545715332
1715114115687427000,8.036427001953125,3.3662476539611816,1.6041151285171509,-1.2401964664459229
1715114115697377000,8.046376953125,2.6192567348480225,1.9249382019042969,-0.8140285611152649
1715114115707327000,8.056326904296874,2.054224967956543,2.279279947280884,-0.33518823981285095
1715114115717277200,8.066277099609374,1.7334020137786865,2.7054479122161865,0.17238251864910126
1715114115727227100,8.07622705078125,1.742978811264038,3.2082302570343018,0.7326257228851318
1715114115737177300,8.08617724609375,2.030282974243164,3.73016619682312,1.3455413579940796
1715114115747127300,8.096127197265625,2.557007312774658,4.247313976287842,1.7477672100067139
1715114115757077200,8.1060771484375,3.050212860107422,4.73573112487793,1.9919757843017578
1715114115767027500,8.11602734375,3.313575267791748,5.185841083526611,2.097320795059204
1715114115776977400,8.125977294921874,3.533841609954834,5.635950565338135,1.9728221893310547
1715114115786927400,8.13592724609375,3.998316764831543,6.038176536560059,1.7908629179000854
1715114115796877600,8.145877685546875,4.8937482833862305,6.445190906524658,1.6903064250946045
1715114115806827500,8.15582763671875,6.033388137817383,6.780379295349121,1.6424223184585571
1715114115816777700,8.16577783203125,7.556100368499756,7.010222434997559,1.7477672100067139
1715114115826727700,8.175727783203126,9.5624418258667,7.110779285430908,2.31758713722229
1715114115836677600,8.185677734375,11.597513198852539,7.1490864753723145,3.050212860107422
1715114115846627800,8.1956279296875,13.239935874938965,7.010222434997559,3.375824451446533
1715114115856577800,8.205577880859375,14.36521053314209,6.675034523010254,3.428496837615967
1715114115866528000,8.215528076171875,14.891934394836426,6.119579315185547,3.1220390796661377
1715114115876478000,8.22547802734375,15.270218849182129,5.588066577911377,2.3367409706115723
1715114115886428000,8.235427978515625,15.729905128479004,5.17626428604126,1.3120225667953491
1715114115896378000,8.245378173828126,16.2087459564209,4.9368438720703125,0.3447650372982025
1715114115906328000,8.255328125,15.811307907104492,4.879383087158203,-0.35434186458587646
1715114115916278000,8.265278076171874,14.192827224731445,5.118803024291992,-0.5889736413955688
1715114115926228000,8.27522802734375,12.339715957641602,5.621585369110107,-0.49320554733276367
1715114115936178200,8.28517822265625,10.697293281555176,6.1052141189575195,-0.33518823981285095
1715114115946128100,8.295128173828125,9.370905876159668,6.636727333068848,0.09576806426048279
1715114115956078000,8.305078125,8.662221908569336,6.981492042541504,0.8044517636299133
1715114115966028000,8.315028076171876,9.083600997924805,6.933608055114746,1.4748282432556152
1715114115975978000,8.32497802734375,10.362105369567871,6.339846134185791,1.7381904125213623
1715114115985928000,8.334927978515625,11.851298332214355,5.396530628204346,1.50355863571167
1715114115995878100,8.344878173828125,13.330915451049805,4.481945514678955,1.0869675874710083
1715114116005828000,8.354828125,14.33169174194336,3.4093432426452637,0.8188169598579407
1715114116015778000,8.364778076171875,14.360422134399414,2.5665841102600098,0.751779317855835
1715114116025728000,8.37472802734375,13.287819862365723,2.2170307636260986,0.9672574996948242
1715114116035678000,8.384677978515626,11.66455078125,2.298433542251587,1.6328455209732056
1715114116045628200,8.394628173828124,10.5344877243042,2.5474305152893066,2.6575639247894287
1715114116055578000,8.404578125,10.309432983398438,2.7102363109588623,3.3854012489318848
1715114116065528000,8.414528076171875,10.577583312988281,2.734178304672241,3.624821424484253
1715114116075478000,8.42447802734375,10.912771224975586,2.580949544906616,3.6343982219696045
1715114116085428000,8.434427978515625,10.869675636291504,2.5282769203186035,3.404554843902588
1715114116095378200,8.444378173828126,10.405200958251953,2.609679937362671,3.0310592651367188
1715114116105328000,8.454328125,9.643844604492188,2.671929121017456,2.6671407222747803
1715114116115278000,8.464278076171874,8.595184326171875,2.6815059185028076,2.2697031497955322
1715114116125228000,8.47422802734375,7.589619159698486,2.6815059185028076,1.886630892753601
1715114116135178000,8.484177978515625,6.698976516723633,2.6431987285614014,1.7286136150360107
1715114116145128000,8.4941279296875,5.793968200683594,2.6384103298187256,1.680729627609253
1715114116155078100,8.504078125,4.812345504760742,2.7054479122161865,1.699883222579956
1715114116165028000,8.514028076171876,3.88818359375,2.8203697204589844,1.7908629179000854
1715114116174978000,8.52397802734375,3.07415509223938,2.9735984802246094,1.8962076902389526
1715114116184928000,8.533927978515624,2.38462495803833,3.1316158771514893,1.8962076902389526
1715114116194878000,8.5438779296875,1.944091796875,3.2848446369171143,1.7860745191574097
1715114116204828200,8.553828125,1.8914192914962769,3.4811692237854004,1.5466543436050415
1715114116214778000,8.563778076171875,2.1978771686553955,3.711012601852417,1.3646949529647827
1715114116224728000,8.57372802734375,2.7485435009002686,3.9839515686035156,1.3072341680526733
1715114116234678000,8.583677978515626,3.2609026432037354,4.23773717880249,1.2306196689605713
1715114116244628000,8.5936279296875,3.5482068061828613,4.376600742340088,0.933738648891449
1715114116254578200,8.603578125,3.4811692237854004,4.5394062995910645,0.5793967843055725
1715114116264528100,8.613528076171875,3.332728862762451,4.817133903503418,0.3687070608139038
1715114116274478000,8.62347802734375,3.4811692237854004,5.166687488555908,0.49320554733276367
1715114116284428000,8.633427978515625,4.050989151000977,5.430049419403076,0.7230489253997803
1715114116294378000,8.6433779296875,4.975151062011719,5.7125654220581055,0.9241618514060974
1715114116304328000,8.653327880859376,6.229712963104248,6.028599739074707,1.3455413579940796
1715114116314278100,8.663278076171874,7.723694801330566,6.205770969390869,1.900996208190918
1715114116324228000,8.67322802734375,9.332598686218262,6.172252178192139,2.274491548538208
1715114116334178000,8.683177978515625,10.903194427490234,6.028599739074707,2.3319525718688965
1715114116344128000,8.6931279296875,12.277466773986816,5.918466567993164,2.097320795059204
1715114116354078000,8.703077880859375,13.086706161499023,5.808333396911621,1.599326729774475
1715114116364028200,8.713028076171875,13.661314964294434,5.789179801940918,0.8810662031173706
1715114116373978000,8.72297802734375,14.264654159545898,5.808333396911621,0.17717093229293823
1715114116383928000,8.732927978515624,14.935029983520508,5.832275390625,-0.4405331015586853
1715114116393878000,8.7428779296875,15.121777534484863,5.918466567993164,-1.039083480834961
1715114116403828000,8.752827880859375,14.231135368347168,6.224924564361572,-1.5131354331970215
1715114116413778200,8.762778076171875,12.593501091003418,6.742072105407715,-1.7046716213226318
1715114116423728000,8.77272802734375,10.96544361114502,7.2783732414245605,-1.5658079385757446
1715114116433678000,8.782677978515625,10.127472877502441,7.738059997558594,-1.1348515748977661
1715114116443628000,8.7926279296875,10.558429718017578,7.86734676361084,-0.5171475410461426
1715114116453578000,8.802577880859374,12.229581832885742,7.364564418792725,0.12449848651885986
1715114116463528000,8.81252783203125,14.18803882598877,6.502651691436768,0.5554547905921936
1715114116473478100,8.82247802734375,15.380352020263672,5.688623428344727,0.5746083855628967
1715114116483428000,8.832427978515625,15.270218849182129,5.027823448181152,0.12928688526153564
1715114116493378000,8.8423779296875,14.235923767089844,4.568136692047119,-0.5602431893348694
1715114116503328000,8.852327880859375,12.722787857055664,4.266467571258545,-1.2018892765045166
1715114116513278000,8.86227783203125,11.171344757080078,4.156333923339844,-1.656787633895874
1715114116523228200,8.872228271484374,9.96945571899414,4.156333923339844,-1.7860745191574097
1715114116533178000,8.88217822265625,9.255983352661133,4.146757125854492,-1.5658079385757446
1715114116543128000,8.892128173828125,8.892065048217773,4.189853191375732,-0.9528923034667969
1715114116553078000,8.902078125,8.89685344696045,4.280832767486572,0.019153613597154617
1715114116563028000,8.912028076171875,9.346963882446289,4.185064792633057,0.9050082564353943
1715114116572978200,8.921978271484376,10.065223693847656,3.801992416381836,1.3455413579940796
1715114116582928100,8.93192822265625,10.65898609161377,3.337517261505127,1.4221558570861816
1715114116592878000,8.941878173828124,10.946290016174316,2.873042106628418,1.2449848651885986
1715114116602828000,8.951828125,11.051634788513184,2.3127987384796143,0.8427590131759644
1715114116612778000,8.961778076171875,11.037269592285156,1.843535304069519,0.272938996553421
1715114116622728000,8.97172802734375,10.788272857666016,1.4508862495422363,-0.33997663855552673
1715114116632678100,8.98167822265625,10.08437728881836,1.1779472827911377,-0.8619126081466675
1715114116642628000,8.991628173828126,9.050082206726074,1.0821791887283325,-1.2976573705673218
1715114116652578000,9.001578125,8.125920295715332,1.1348515748977661,-1.5610195398330688
1715114116662528000,9.011528076171874,7.422025203704834,1.216254472732544,-1.647210717201233
1715114116672478000,9.02147802734375,6.746860504150391,1.2880805730819702,-1.6519991159439087
1715114116682428200,9.03142822265625,6.157886981964111,1.4317326545715332,-1.460463047027588
1715114116692378000,9.041378173828125,5.789179801940918,1.6759412288665771,-0.9959878921508789
1715114116702328000,9.051328125,5.473145008087158,1.900996208190918,-0.5267243981361389
1715114116712278000,9.061278076171876,5.070919036865234,2.1547815799713135,-0.22505496442317963
1715114116722228000,9.07122802734375,4.60165548324585,2.456450939178467,0.023942016065120697
1715114116732178200,9.08117822265625,4.194641590118408,2.8155810832977295,0.3447650372982025
1715114116742128000,9.091128173828125,4.07014274597168,3.1938650608062744,0.6703764796257019
1715114116752078000,9.101078125,4.180276393890381,3.5482068061828613,0.871489405632019
1715114116762028000,9.111028076171875,4.309563159942627,3.8355112075805664,0.8667010068893433
1715114116771978000,9.12097802734375,4.3861775398254395,4.228160381317139,0.751779317855835
1715114116781928000,9.130927978515626,4.563348293304443,4.764461517333984,0.7613561153411865
1715114116791878100,9.140878173828124,4.778826713562012,5.233725070953369,0.9576807022094727
1715114116801828000,9.150828125,5.070919036865234,5.640739440917969,1.139639973640442
1715114116811778000,9.160778076171875,5.430049419403076,5.932831764221191,1.1875240802764893
1715114116821728000,9.17072802734375,6.071695327758789,6.167463779449463,1.235408067703247
1715114116831678000,9.180677978515625,7.417236804962158,6.196194171905518,1.4269442558288574
1715114116841628200,9.190628173828125,9.500192642211914,6.028599739074707,1.8962076902389526
1715114116851578000,9.200578125,11.659762382507324,5.92325496673584,2.5043349266052246
1715114116861528000,9.210528076171874,13.340492248535156,5.92325496673584,2.964021682739258
1715114116871478000,9.22047802734375,14.508862495422363,5.870582580566406,3.1220390796661377
1715114116881428000,9.230427978515625,15.365986824035645,5.674258232116699,2.7054479122161865
1715114116891378200,9.240378173828125,15.614983558654785,5.434837818145752,1.742978811264038
1715114116901328100,9.250328125,14.930241584777832,5.396530628204346,0.6751648783683777
1715114116911278000,9.260278076171875,13.297396659851074,5.602431774139404,0.08619125932455063
1715114116921228000,9.27022802734375,11.597513198852539,6.052541732788086,-0.11971008777618408
1715114116931178000,9.280177978515624,10.15141487121582,6.54574728012085,-0.2585737705230713
1715114116941128000,9.2901279296875,9.045293807983398,6.957550048828125,-0.26815059781074524
1715114116951078000,9.300077880859375,8.710105895996094,7.177816867828369,-0.09576806426048279
1715114116961027800,9.31002783203125,9.342175483703613,7.005434036254883,-0.019153613597154617
1715114116970977800,9.319977783203125,10.788272857666016,6.4595561027526855,-0.10534487664699554
1715114116980927700,9.329927734375,12.200851440429688,5.693411827087402,-0.363918662071228
1715114116990877700,9.339877685546876,12.813767433166504,5.051765441894531,-0.7996633648872375
1715114117000827600,9.34982763671875,12.459425926208496,4.63517427444458,-1.1492167711257935
1715114117010777600,9.359777587890624,11.63103199005127,4.314351558685303,-1.2641384601593018
1715114117020727600,9.3697275390625,10.917559623718262,4.022258758544922,-1.1061211824417114
1715114117030677500,9.379677490234375,10.644620895385742,3.931279182434082,-0.6751648783683777
1715114117040627500,9.38962744140625,11.070788383483887,3.950432777404785,0.13407529890537262
1715114117050577400,9.399577392578125,11.860875129699707,3.9169139862060547,0.9145850539207458
1715114117060527400,9.40952734375,12.780248641967773,3.7924153804779053,1.4844050407409668
1715114117070477300,9.419477294921874,13.321338653564453,3.6296098232269287,1.8579005002975464
1715114117080427300,9.42942724609375,13.057975769042969,3.4955344200134277,1.8962076902389526
1715114117090377200,9.439377197265625,12.100295066833496,3.3854012489318848,1.7286136150360107
1715114117100327200,9.4493271484375,11.013327598571777,3.2848446369171143,1.522712230682373
1715114117110277000,9.459277099609375,10.02691650390625,3.179499864578247,1.3311761617660522
1715114117120227000,9.46922705078125,9.074024200439453,3.0358476638793945,1.072602391242981
1715114117130177000,9.479177001953126,8.015787124633789,2.896984100341797,0.7134721279144287
1715114117140127000,9.489126953125,6.995857238769531,2.7772738933563232,0.35913026332855225
1715114117150077000,9.499076904296874,5.985504150390625,2.676717519760132,0.11013327538967133
1715114117160027000,9.50902685546875,5.147533416748047,2.647987127304077,0.004788403399288654
1715114117169976800,9.518976806640625,4.505887508392334,2.6862943172454834,0.07661445438861847
1715114117179926800,9.5289267578125,3.912125587463379,2.762908697128296,0.24420857429504395
1715114117189876700,9.538876708984375,3.2561142444610596,2.920926094055176,0.2968810200691223
1715114117199826700,9.54882666015625,2.7533318996429443,3.1890766620635986,0.22026655077934265
1715114117209776600,9.558776611328126,2.6240451335906982,3.423708438873291,0.14365209639072418
1715114117219726600,9.5687265625,2.8395233154296875,3.60566782951355,0.090979665517807
1715114117229676500,9.578676513671875,3.026270866394043,3.869029998779297,0.019153613597154617
1715114117239626500,9.58862646484375,2.9257144927978516,4.228160381317139,-0.14844051003456116
1715114117249576700,9.59857666015625,2.671929121017456,4.6255974769592285,-0.33997663855552673
1715114117259526700,9.608526611328125,2.647987127304077,5.008669853210449,-0.3734954595565796
1715114117269476600,9.6184765625,2.8155810832977295,5.449203014373779,-0.14365209639072418
1715114117279426600,9.628426513671876,3.2800562381744385,6.009446144104004,0.1628057211637497
1715114117289376500,9.63837646484375,4.223371982574463,6.392518520355225,0.44532153010368347
1715114117299326700,9.64832666015625,5.60722017288208,6.555324077606201,0.7230489253997803
1715114117309276700,9.658276611328125,7.062894821166992,6.665457725524902,0.9050082564353943
1715114117319226600,9.6682265625,8.130708694458008,6.6127848625183105,0.8667010068893433
1715114117329176600,9.678176513671875,8.834604263305664,6.469132900238037,0.28730419278144836
1715114117339126500,9.68812646484375,9.653421401977539,6.291962146759033,-0.6320692300796509
1715114117349076500,9.698076416015626,10.649409294128418,6.023811340332031,-1.5514427423477173
1715114117359026700,9.708026611328124,11.473014831542969,5.722142219543457,-2.3942017555236816
1715114117368976600,9.7179765625,12.00452709197998,5.521028995513916,-3.1507694721221924
1715114117378926600,9.727926513671875,12.550405502319336,5.4875102043151855,-3.557783842086792
1715114117388876500,9.73787646484375,12.923900604248047,5.65031623840332,-3.533841609954834
1715114117398826500,9.747826416015625,12.861651420593262,6.1052141189575195,-3.361459255218506
1715114117408776700,9.757776611328126,12.287043571472168,6.698976516723633,-3.1316158771514893
1715114117418726700,9.7677265625,11.473014831542969,7.144298076629639,-2.9305028915405273
1715114117428676600,9.777676513671874,10.682928085327148,7.527369976043701,-2.6240451335906982
1715114117438626600,9.78762646484375,10.409989356994629,8.02536392211914,-1.987187385559082
1715114117448576500,9.797576416015625,11.32457447052002,8.269572257995605,-0.9481038451194763
1715114117458526700,9.807526611328125,13.26866626739502,7.90086555480957,0.05267243832349777
1715114117468476700,9.8174765625,15.21275806427002,7.2113356590271,0.6177040338516235
1715114117478426600,9.827426513671876,16.294937133789062,6.45476770401001,0.6224924325942993
1715114117488376600,9.83737646484375,16.012420654296875,5.683835029602051,0.06703764945268631
1715114117498326500,9.847326416015624,14.777012825012207,4.994304656982422,-0.7086837291717529
1715114117508276500,9.8572763671875,13.12501335144043,4.534617900848389,-1.5083470344543457
1715114117518226700,9.867226806640625,11.626243591308594,4.290409564971924,-2.1499931812286377
1715114117528176600,9.8771767578125,10.362105369567871,4.2090067863464355,-2.3367409706115723
1715114117538126600,9.887126708984376,9.44752025604248,4.299986362457275,-1.8962076902389526
1715114117548076500,9.89707666015625,9.165003776550293,4.501099109649658,-0.8427590131759644
1715114117558026500,9.907026611328124,9.50498104095459,4.711789131164551,0.5219359993934631
1715114117567976700,9.916976806640625,10.036493301391602,4.730942726135254,1.6950948238372803
1715114117577926700,9.9269267578125,10.47702693939209,4.4723687171936035,2.389413356781006
1715114117587876600,9.936876708984375,10.797849655151367,4.031835556030273,2.518700122833252
1715114117597826600,9.94682666015625,10.979808807373047,3.576937437057495,2.3367409706115723
1715114117607776500,9.956776611328126,10.960655212402344,3.098097085952759,2.0159177780151367
1715114117617726700,9.966726806640626,10.663774490356445,2.6575639247894287,1.5275006294250488
1715114117627676700,9.9766767578125,9.983820915222168,2.341529369354248,0.933738648891449
1715114117637626600,9.986626708984375,8.844181060791016,2.164358377456665,0.2968810200691223
1715114117647576600,9.99657666015625,7.474697589874268,2.1116859912872314,-0.33518823981285095
1715114117657526500,10.006526611328125,6.143521785736084,2.1164743900299072,-0.7374141216278076
1715114117667476500,10.0164765625,5.085284233093262,2.1116859912872314,-0.9433154463768005
1715114117677426700,10.0264267578125,4.3191399574279785,2.169146776199341,-0.9768342971801758
1715114117687376600,10.036376708984376,3.7636849880218506,2.3750481605529785,-0.8140285611152649
1715114117697326600,10.04632666015625,3.3854012489318848,2.691082715988159,-0.33518823981285095
1715114117707276500,10.056276611328125,3.19865345954895,3.00711727142334,0.2968810200691223
1715114117717226500,10.0662265625,3.184288263320923,3.380612850189209,0.8331822156906128
1715114117727176700,10.0761767578125,3.3470940589904785,3.7876269817352295,1.158793568611145
1715114117737126700,10.086126708984375,3.514688014984131,4.223371982574463,1.3646949529647827
1715114117747076600,10.09607666015625,3.6104562282562256,4.649539470672607,1.5705963373184204
1715114117757026600,10.106026611328126,3.509899616241455,5.056553840637207,1.647210717201233
1715114117766976500,10.1159765625,3.533841609954834,5.439626216888428,1.4413094520568848
1715114117776926700,10.1259267578125,3.9456443786621094,5.693411827087402,1.173158884048462
1715114117786876700,10.135876708984375,4.572925090789795,5.7987565994262695,0.7709329724311829
1715114117796826600,10.14582666015625,5.30076265335083,5.851428985595703,0.090979665517807
1715114117806776600,10.155776611328125,6.224924564361572,5.884947776794434,-0.40701428055763245
1715114117816726500,10.1657265625,7.101202011108398,5.861005783081055,-0.4692635238170624
1715114117826676500,10.175676513671876,7.910442352294922,6.0190229415893555,-0.1628057211637497
1715114117836626700,10.185626708984374,8.992621421813965,6.3063273429870605,0.5889736413955688
1715114117846576600,10.19557666015625,10.223240852355957,6.4595561027526855,1.3694833517074585
1715114117856526600,10.205526611328125,11.166556358337402,6.449979305267334,1.5658079385757446
1715114117866476500,10.2154765625,11.961431503295898,6.368576526641846,1.173158884048462
1715114117876426500,10.225426513671875,12.97657299041748,6.1052141189575195,0.43095630407333374
1715114117886376700,10.235376708984376,13.97256088256836,5.827486991882324,-0.5841852426528931
1715114117896326700,10.24532666015625,14.255077362060547,5.698200225830078,-1.556231141090393
1715114117906276600,10.255276611328124,13.570335388183594,5.722142219543457,-2.126051187515259
1715114117916226600,10.2652265625,12.176909446716309,5.995080947875977,-2.1787235736846924
1715114117926176500,10.275176513671875,10.917559623718262,6.469132900238037,-1.8962076902389526
1715114117936126700,10.285126708984375,10.194510459899902,6.92881965637207,-1.3982137441635132
1715114117946076700,10.29507666015625,10.036493301391602,7.182605266571045,-0.6751648783683777
1715114117956026600,10.305026611328126,10.524910926818848,7.240066051483154,-0.043095629662275314
1715114117965976600,10.3149765625,11.78904914855957,6.914454460144043,0.4357447028160095
1715114117975926500,10.324926513671874,13.350069046020508,6.210559368133545,0.5123591423034668
1715114117985876500,10.33487646484375,14.4226713180542,5.382165431976318,0
1715114117995826700,10.34482666015625,14.336480140686035,4.553771495819092,-0.7134721279144287
1715114118005776600,10.354776611328125,13.326127052307129,3.9217023849487305,-1.3934253454208374
1715114118015726600,10.3647265625,11.793837547302246,3.581725835800171,-1.7046716213226318
1715114118025676500,10.374676513671876,10.347740173339844,3.6152446269989014,-1.3982137441635132
1715114118035626500,10.38462646484375,9.782708168029785,3.88818359375,-0.49320554733276367
1715114118045576700,10.39457666015625,10.122684478759766,4.027047157287598,0.8044517636299133
1715114118055526700,10.404526611328125,10.596736907958984,4.098873138427734,1.944091796875
1715114118065476600,10.4144765625,10.745177268981934,4.108449935913086,2.5761611461639404
1715114118075426600,10.424426513671875,10.462661743164062,3.9839515686035156,2.734178304672241
1715114118085376500,10.43437646484375,9.86889934539795,3.8355112075805664,2.513911724090576
1715114118095326700,10.44432666015625,9.193734169006348,3.7253777980804443,2.2457611560821533
1715114118105276700,10.454276611328124,8.528146743774414,3.581725835800171,2.078166961669922
1715114118115226600,10.4642265625,7.910442352294922,3.4763808250427246,1.867477297782898
1715114118125176600,10.474176513671875,7.259219646453857,3.399766445159912,1.556231141090393
1715114118135126500,10.48412646484375,6.521805286407471,3.332728862762451,1.1109095811843872
1715114118145076500,10.494076416015625,5.822698593139648,3.265691041946411,0.6560112833976746
1715114118155026700,10.504026611328126,5.1810526847839355,3.2369606494903564,0.3495534360408783
1715114118164976600,10.5139765625,4.558559894561768,3.2561142444610596,0.1867477297782898
1715114118174926600,10.523926513671874,3.955221176147461,3.2992098331451416,0.08619125932455063
1715114118184876500,10.53387646484375,3.399766445159912,3.399766445159912,0.06224924325942993
1715114118194826500,10.543826416015625,2.935291290283203,3.60566782951355,0.090979665517807
1715114118204776700,10.553776611328125,2.8203697204589844,3.8355112075805664,0.2346317619085312
1715114118214726700,10.5637265625,3.064578056335449,4.1180267333984375,0.3926490843296051
1715114118224676600,10.573676513671876,3.509899616241455,4.371812343597412,0.31603461503982544
1715114118234626600,10.58362646484375,3.974374771118164,4.639962673187256,-0.019153613597154617
1715114118244576500,10.593576416015624,4.596867084503174,4.975151062011719,-0.363918662071228
1715114118254526700,10.603526611328125,5.353435039520264,5.219359874725342,-0.6799532771110535
1715114118264476700,10.6134765625,6.229712963104248,5.377377033233643,-0.9624691009521484
1715114118274426600,10.623426513671875,7.201758861541748,5.578489780426025,-1.1061211824417114
1715114118284376600,10.63337646484375,8.159439086914062,5.803544998168945,-1.048660397529602
1715114118294326500,10.643326416015626,9.217676162719727,5.995080947875977,-0.8810662031173706
1715114118304276500,10.6532763671875,10.223240852355957,6.1770405769348145,-0.5841852426528931
1715114118314226700,10.663226806640624,10.931924819946289,6.378153324127197,-0.2777273952960968
1715114118324176600,10.6731767578125,11.401188850402832,6.574477672576904,0.009576806798577309
1715114118334126600,10.683126708984375,11.654973983764648,6.670246124267578,0.1628057211637497
1715114118344076500,10.69307666015625,11.693281173706055,6.742072105407715,0.023942016065120697
1715114118354026500,10.703026611328125,11.736376762390137,6.780379295349121,-0.2346317619085312
1715114118363976400,10.7129765625,11.966219902038574,6.655880928039551,-0.6368576288223267
1715114118373926400,10.722926513671876,12.531251907348633,6.45476770401001,-1.2832920551300049
1715114118383876400,10.73287646484375,12.775460243225098,6.325480937957764,-2.0159177780151367
1715114118393826300,10.742826416015625,12.076353073120117,6.464344501495361,-2.676717519760132
1715114118403776300,10.7527763671875,10.745177268981934,6.938396453857422,-2.849100112915039
1715114118413726200,10.762726318359375,9.782708168029785,7.398083209991455,-2.4229321479797363
1715114118423676200,10.77267626953125,9.461885452270508,7.6997528076171875,-1.6136919260025024
1715114118433626000,10.782626220703126,10.132261276245117,7.86734676361084,-0.6224924325942993
1715114118443576000,10.792576171875,11.865663528442383,7.666234016418457,0.3687070608139038
1715114118453526000,10.802526123046874,13.771448135375977,7.1251444816589355,1.0869675874710083
1715114118463476000,10.81247607421875,14.76264762878418,6.45476770401001,1.2258312702178955
1715114118473426000,10.822426025390625,14.116212844848633,5.698200225830078,0.7565677165985107
1715114118483375900,10.8323759765625,12.483367919921875,5.061342239379883,-0.29209262132644653
1715114118493325800,10.842325927734375,10.60152530670166,4.659116744995117,-1.599326729774475
1715114118503275800,10.85227587890625,8.959102630615234,4.534617900848389,-2.8874073028564453
1715114118513225700,10.862225830078126,7.886500358581543,4.63517427444458,-3.6774938106536865
1715114118523175700,10.87217578125,7.603984832763672,4.821922302246094,-3.5194764137268066
1715114118533125600,10.882125732421875,8.135497093200684,5.018246650695801,-2.557007312774658
1715114118543075300,10.892075439453125,8.987833023071289,5.027823448181152,-1.2449848651885986
1715114118553025300,10.902025390625,9.739612579345703,4.8937482833862305,-0.10534487664699554
1715114118562975200,10.911975341796875,10.256759643554688,4.606443881988525,0.8092401623725891
1715114118572925200,10.92192529296875,10.630255699157715,4.252102375030518,1.3838485479354858
1715114118582875100,10.931875244140626,10.773907661437988,3.88818359375,1.6711528301239014
1715114118592825000,10.9418251953125,10.582371711730957,3.5386300086975098,1.680729627609253
1715114118602775000,10.951775146484374,10.156203269958496,3.2082302570343018,1.460463047027588
1715114118612725000,10.96172509765625,9.600749015808105,2.964021682739258,1.173158884048462
1715114118622675000,10.971675048828125,9.097966194152832,2.801215887069702,0.8667010068893433
1715114118632625000,10.981625,8.643068313598633,2.5953147411346436,0.5267243981361389
1715114118642574800,10.991574951171875,7.848193168640137,2.4133553504943848,0.17717093229293823
1715114118652524800,11.00152490234375,6.646304130554199,2.360682964324951,-0.22026655077934265
1715114118662474800,11.011474853515624,5.463568210601807,2.389413356781006,-0.4118026793003082
1715114118672424700,11.0214248046875,4.477157115936279,2.4372973442077637,-0.3495534360408783
1715114118682374700,11.031374755859375,3.7828385829925537,2.63362193107605,-0.14844051003456116
1715114118692324600,11.04132470703125,3.44765043258667,2.983175277709961,0.2106897532939911
1715114118702274600,11.051274658203125,3.308786630630493,3.4141316413879395,0.5793967843055725
1715114118712224500,11.061224609375,3.3231520652770996,3.8355112075805664,0.7661445140838623
1715114118722174500,11.071174560546876,3.5673606395721436,4.1611223220825195,0.8092401623725891
1715114118732124700,11.081124755859374,3.8546648025512695,4.462791919708252,0.6991068720817566
1715114118742074600,11.09107470703125,4.10366153717041,4.884171485900879,0.5267243981361389
1715114118752024600,11.101024658203125,4.357447147369385,5.2911858558654785,0.2777273952960968
1715114118761974500,11.110974609375,4.7405195236206055,5.6455278396606445,-0.009576806798577309
1715114118771924500,11.120924560546875,5.214571475982666,6.01423454284668,-0.2537853717803955
1715114118781874700,11.130874755859375,5.765237808227539,6.339846134185791,-0.4836287498474121
1715114118791824600,11.14082470703125,6.6127848625183105,6.603208065032959,-0.5171475410461426
1715114118801774600,11.150774658203124,7.4986395835876465,6.809109687805176,-0.363918662071228
1715114118811724500,11.160724609375,8.101978302001953,7.010222434997559,-0.2298433631658554
1715114118821674500,11.170674560546875,8.432378768920898,7.163451671600342,-0.10055647045373917
1715114118831624400,11.18062451171875,8.829815864562988,7.249642848968506,0.2777273952960968
1715114118841574700,11.19057470703125,9.859322547912598,7.206547260284424,0.9050082564353943
1715114118851524600,11.200524658203125,11.348516464233398,6.952761650085449,1.3742717504501343
1715114118861474600,11.210474609375,12.813767433166504,6.631938934326172,1.259350061416626
1715114118871424500,11.220424560546874,13.996502876281738,6.430825710296631,0.6129156351089478
1715114118881374500,11.23037451171875,14.374787330627441,6.196194171905518,-0.2106897532939911
1715114118891324700,11.24032470703125,13.4506254196167,6.071695327758789,-0.9864110946655273
1715114118901274600,11.250274658203125,11.69806957244873,6.224924564361572,-1.2545616626739502
1715114118911224600,11.260224609375,10.213664054870605,6.478709697723389,-1.0295066833496094
1715114118921174500,11.270174560546875,9.370905876159668,6.631938934326172,-0.6799532771110535
1715114118931124500,11.28012451171875,9.169792175292969,6.631938934326172,-0.33518823981285095
1715114118941074700,11.29007470703125,9.749189376831055,6.358999729156494,-0.15801730751991272
1715114118951024600,11.300024658203125,10.797849655151367,5.726930618286133,-0.3687070608139038
1715114118960974600,11.309974609375,11.856086730957031,4.965574264526367,-0.6799532771110535
1715114118970924500,11.319924560546875,12.382811546325684,4.3622355461120605,-0.9528923034667969
1715114118980874500,11.32987451171875,12.205639839172363,4.027047157287598,-1.2114660739898682
1715114118990824400,11.339824462890626,11.396400451660156,3.7684733867645264,-1.192312479019165
1715114119000774700,11.349774658203126,10.362105369567871,3.7158010005950928,-0.8571242094039917
1715114119010724600,11.359724609375,9.955090522766113,3.840299606323242,-0.15322890877723694
1715114119020674600,11.369674560546875,10.127472877502441,4.003105163574219,0.828393816947937
1715114119030624500,11.37962451171875,10.716446876525879,4.0749311447143555,1.6615760326385498
1715114119040574500,11.389574462890625,11.27190113067627,3.907337188720703,2.1499931812286377
1715114119050524700,11.399524658203125,11.310209274291992,3.7253777980804443,2.145204782485962
1715114119060474600,11.409474609375,10.879252433776855,3.6535518169403076,1.920149803161621
1715114119070424600,11.419424560546876,10.213664054870605,3.576937437057495,1.7190368175506592
1715114119080374500,11.42937451171875,9.476250648498535,3.4955344200134277,1.460463047027588
1715114119090324500,11.439324462890625,8.882488250732422,3.4380736351013184,1.139639973640442
1715114119100274700,11.449274658203125,8.432378768920898,3.3710360527038574,0.8475474119186401
1715114119110224600,11.459224609375,7.987056732177734,3.3039982318878174,0.6177040338516235
1715114119120174600,11.469174560546875,7.407660007476807,3.28963303565979,0.4405331015586853
1715114119130124500,11.47912451171875,6.785167694091797,3.3279404640197754,0.3687070608139038
1715114119140074500,11.489074462890626,6.14831018447876,3.3901896476745605,0.49320554733276367
1715114119150024400,11.4990244140625,5.492298603057861,3.5003228187561035,0.7038952708244324
1715114119159974700,11.508974609375,4.702212333679199,3.6343982219696045,0.8906430602073669
1715114119169924600,11.518924560546875,3.907337188720703,3.8115692138671875,0.9624691009521484
1715114119179874600,11.52887451171875,3.3423056602478027,4.0749311447143555,0.9768342971801758
1715114119189824500,11.538824462890625,3.07415509223938,4.309563159942627,0.9002198576927185
1715114119199774500,11.5487744140625,2.959233283996582,4.606443881988525,0.7182605266571045
1715114119209724700,11.558724609375,3.0789434909820557,5.008669853210449,0.4884171485900879
1715114119219674600,11.568674560546874,3.5242648124694824,5.339069843292236,0.35913026332855225
1715114119229624600,11.57862451171875,4.228160381317139,5.525817394256592,0.2298433631658554
1715114119239574500,11.588574462890625,4.98472785949707,5.717353820800781,0.1149216815829277
1715114119249524500,11.5985244140625,5.789179801940918,5.884947776794434,-0.038307227194309235
1715114119259474400,11.608474365234375,6.914454460144043,5.92325496673584,-0.07661445438861847
1715114119269424400,11.61842431640625,8.418013572692871,5.889736175537109,-0.07182604819536209
1715114119279374300,11.628374267578126,9.96945571899414,5.870582580566406,-0.10055647045373917
1715114119289324300,11.63832421875,11.109095573425293,5.95677375793457,-0.07182604819536209
1715114119299274200,11.648274169921875,11.784260749816895,6.129156112670898,0.038307227194309235
1715114119309224200,11.65822412109375,12.27267837524414,6.157886981964111,0.17717093229293823
1715114119319174100,11.668174072265625,12.516886711120605,6.057330131530762,-0.08140286058187485
1715114119329124000,11.6781240234375,12.57913589477539,5.980715751647949,-0.7709329724311829
1715114119339074000,11.688073974609376,12.445060729980469,5.837063789367676,-1.41257905960083
1715114119349024000,11.69802392578125,12.09550666809082,5.813121795654297,-1.647210717201233
1715114119358974000,11.707973876953124,11.693281173706055,5.899312973022461,-1.5179238319396973
1715114119368924000,11.717923828125,11.343728065490723,6.023811340332031,-1.41257905960083
1715114119378873900,11.727873779296875,10.812214851379395,6.224924564361572,-1.5418659448623657
1715114119388823800,11.73782373046875,10.08437728881836,6.607996463775635,-1.8770540952682495
1715114119398773800,11.747773681640625,9.21288776397705,7.105990409851074,-2.078166961669922
1715114119408723700,11.7577236328125,8.643068313598633,7.417236804962158,-1.9488801956176758
1715114119418673700,11.767673583984376,8.791508674621582,7.4986395835876465,-1.3646949529647827
1715114119428623600,11.77762353515625,9.787496566772461,7.527369976043701,-0.45010992884635925
1715114119438573600,11.787573486328125,11.362881660461426,7.383718013763428,0.545877993106842
1715114119448523500,11.7975234375,13.168108940124512,6.871358871459961,1.4891934394836426
1715114119458473500,11.807473388671875,14.561534881591797,6.172252178192139,1.9776105880737305
1715114119468423400,11.81742333984375,14.767436027526855,5.272032260894775,1.6089035272598267
1715114119478373400,11.827373291015626,13.718775749206543,4.3861775398254395,0.24420857429504395
1715114119488323300,11.8373232421875,12.02846908569336,3.801992416381836,-1.460463047027588
1715114119498273300,11.847273193359374,10.228029251098633,3.5482068061828613,-2.8443117141723633
1715114119508223200,11.85722314453125,8.796297073364258,3.5913026332855225,-3.734954595565796
1715114119518173200,11.867173095703125,7.972691535949707,3.7876269817352295,-3.7445313930511475
1715114119528123100,11.877123046875,7.939172744750977,4.003105163574219,-2.9448680877685547
1715114119538073000,11.887072998046875,8.729259490966797,4.146757125854492,-1.6663644313812256
1715114119548023000,11.89702294921875,9.849745750427246,4.079719543457031,-0.43095630407333374
1715114119557973000,11.906972900390626,10.81700325012207,3.801992416381836,0.272938996553421
1715114119567923000,11.9169228515625,11.338939666748047,3.428496837615967,0.507570743560791
1715114119577873000,11.926872802734374,11.319786071777344,3.112462282180786,0.3878606855869293
1715114119587822800,11.93682275390625,10.879252433776855,2.892195701599121,0.090979665517807
1715114119597772800,11.946772705078125,10.050858497619629,2.738966703414917,-0.16759411990642548
1715114119607722800,11.95672265625,9.02135181427002,2.7437551021575928,-0.3495534360408783
1715114119617672700,11.966672607421875,8.169015884399414,2.8395233154296875,-0.4357447028160095
1715114119627622700,11.97662255859375,7.642292022705078,2.7916390895843506,-0.4692635238170624
1715114119637572600,11.986572509765624,7.144298076629639,2.6671407222747803,-0.5554547905921936
1715114119647522600,11.9965224609375,6.497863292694092,2.609679937362671,-0.689530074596405
1715114119657472500,12.006472412109375,5.770026206970215,2.6192567348480225,-0.6751648783683777
1715114119667422500,12.01642236328125,5.056553840637207,2.6144683361053467,-0.5410895943641663
1715114119677372400,12.026372314453125,4.357447147369385,2.7246015071868896,-0.3687070608139038
1715114119687322400,12.036322265625,3.8067808151245117,3.0119056701660156,-0.19632454216480255
1715114119697272300,12.046272216796876,3.361459255218506,3.3279404640197754,-0.08619125932455063
1715114119707222300,12.05622216796875,3.1076738834381104,3.6966474056243896,-0.12449848651885986
1715114119717172200,12.066172119140624,3.0406360626220703,4.146757125854492,-0.10055647045373917
1715114119727122200,12.0761220703125,3.141192674636841,4.659116744995117,-0.014365210197865963
1715114119737072000,12.086072021484375,3.5003228187561035,5.152322292327881,0.038307227194309235
1715114119747022000,12.09602197265625,4.0078935623168945,5.592854976654053,-0.014365210197865963
1715114119756972000,12.105971923828125,4.587290287017822,5.880159378051758,-0.2298433631658554
1715114119766922000,12.115921875,5.085284233093262,5.932831764221191,-0.6416460275650024
1715114119776872000,12.125871826171876,5.564124584197998,6.110002517700195,-1.0007762908935547
1715114119786821600,12.135821533203124,6.464344501495361,6.435614109039307,-0.9145850539207458
1715114119796771600,12.145771484375,7.8960771560668945,6.6846113204956055,-0.4884171485900879
1715114119806721500,12.155721435546875,9.75397777557373,6.856993675231934,0.19632454216480255
1715114119816671500,12.16567138671875,11.592724800109863,6.876147270202637,1.0821791887283325
1715114119826621400,12.175621337890625,12.876016616821289,6.6846113204956055,1.4939818382263184
1715114119836571400,12.1855712890625,13.570335388183594,6.445190906524658,1.278503656387329
1715114119846521300,12.195521240234376,13.85763931274414,6.071695327758789,0.8667010068893433
1715114119856471300,12.20547119140625,13.982137680053711,5.693411827087402,0.31603461503982544
1715114119866421200,12.215421142578125,14.149731636047363,5.353435039520264,-0.29209262132644653
1715114119876371200,12.22537109375,14.00607967376709,5.195417881011963,-0.9193734526634216
1715114119886321200,12.235321044921875,13.105859756469727,5.363011837005615,-1.2258312702178955
1715114119896271000,12.24527099609375,11.511322021484375,5.612008571624756,-1.292868971824646
1715114119906221300,12.25522119140625,9.830592155456543,5.774814605712891,-1.292868971824646
1715114119916171300,12.265171142578126,8.494627952575684,5.999869346618652,-0.9864110946655273
1715114119926121200,12.275121337890624,7.785943984985352,6.3733649253845215,-0.272938996553421
1715114119936071200,12.2850712890625,8.097189903259277,6.617573261260986,0.8379706144332886
1715114119946021000,12.295021240234375,9.30386734008789,6.507440090179443,1.9823989868164062
1715114119955971000,12.30497119140625,11.022904396057129,5.8657941818237305,2.628833532333374
1715114119965921300,12.31492138671875,12.497733116149902,4.999093055725098,2.695871114730835
1715114119975871200,12.324871337890626,13.163320541381836,4.165910720825195,2.4420857429504395
1715114119985821200,12.3348212890625,12.732364654541016,3.6104562282562256,1.9728221893310547
1715114119995771100,12.344771240234374,11.894393920898438,3.4141316413879395,1.4748282432556152
1715114120005721000,12.35472119140625,11.305420875549316,3.428496837615967,1.1827356815338135
1715114120015671300,12.36467138671875,11.348516464233398,3.6774938106536865,1.039083480834961
1715114120025621200,12.374621337890625,11.616666793823242,3.907337188720703,1.1061211824417114
1715114120035571200,12.3845712890625,11.803414344787598,4.0749311447143555,1.259350061416626
1715114120045521200,12.394521240234376,11.841721534729004,4.113238334655762,1.1971008777618408
1715114120055471000,12.40447119140625,11.669339179992676,4.079719543457031,0.9816226959228516
1715114120065421300,12.41442138671875,11.329362869262695,3.9600095748901367,0.7805097699165344
1715114120075371300,12.424371337890625,10.869675636291504,3.7158010005950928,0.5410895943641663
1715114120085321200,12.4343212890625,10.18493366241455,3.4380736351013184,0.16759411990642548
1715114120095271200,12.444271240234375,9.332598686218262,3.380612850189209,-0.1149216815829277
1715114120105221000,12.45422119140625,8.451532363891602,3.3949780464172363,-0.2537853717803955
1715114120115171000,12.464171142578126,7.5417351722717285,3.4141316413879395,-0.3495534360408783
1715114120125121300,12.474121337890624,6.785167694091797,3.529053211212158,-0.31124621629714966
1715114120135071200,12.4840712890625,6.215347766876221,3.643975019454956,-0.033518824726343155
1715114120145021200,12.494021240234375,5.7125654220581055,3.706224203109741,0.2346317619085312
1715114120154971100,12.50397119140625,4.994304656982422,3.7684733867645264,0.3926490843296051
1715114120164921000,12.513921142578125,4.022258758544922,3.8355112075805664,0.4213795065879822
1715114120174871300,12.523871337890625,3.270479440689087,3.9456443786621094,0.37828385829925537
1715114120184821200,12.5338212890625,2.911349296569824,4.041412353515625,0.363918662071228
1715114120194771200,12.543771240234374,2.9305028915405273,4.266467571258545,0.3208230137825012
1715114120204721200,12.55372119140625,3.227383852005005,4.4532151222229,0.37828385829925537
1715114120214671000,12.563671142578125,3.514688014984131,4.438849925994873,0.37828385829925537
1715114120224621300,12.573621337890625,3.7205893993377686,4.553771495819092,0.033518824726343155
1715114120234571300,12.5835712890625,4.132391929626465,4.711789131164551,-0.35913026332855225
1715114120244521200,12.593521240234375,5.023035049438477,4.67827033996582,-0.4405331015586853
1715114120254471200,12.60347119140625,6.076483726501465,4.687847137451172,-0.33518823981285095
1715114120264421000,12.613421142578124,6.876147270202637,4.76924991607666,-0.24420857429504395
1715114120274371000,12.62337109375,7.331045627593994,4.941632270812988,-0.20111294090747833
1715114120284321000,12.633321044921875,7.785943984985352,5.2049946784973145,-0.1867477297782898
1715114120294271000,12.64327099609375,8.398859977722168,5.477933406829834,-0.14844051003456116
1715114120304221000,12.653220947265625,8.992621421813965,5.841852188110352,0.07182604819536209
1715114120314171000,12.6631708984375,9.524134635925293,6.2392897605896,0.5219359993934631
1715114120324120800,12.673120849609376,9.931148529052734,6.540958881378174,0.7852981686592102
1715114120334070800,12.68307080078125,10.194510459899902,6.732495307922363,0.5841852426528931
1715114120344020700,12.693020751953124,10.342951774597168,6.766014099121094,0.17717093229293823
1715114120353970700,12.702970703125,10.711658477783203,6.655880928039551,-0.1628057211637497
1715114120363920400,12.71292041015625,11.295844078063965,6.560112476348877,-0.31603461503982544
1715114120373870300,12.722870361328125,11.707646369934082,6.574477672576904,-0.5554547905921936
1715114120383820300,12.7328203125,11.587936401367188,6.799532890319824,-0.9672574996948242
1715114120393770200,12.742770263671876,10.96544361114502,7.139509677886963,-1.3263877630233765
1715114120403720200,12.75272021484375,10.122684478759766,7.230489253997803,-1.3503297567367554
1715114120413670100,12.762670166015624,9.725247383117676,7.158663272857666,-1.2114660739898682
1715114120423620000,12.7726201171875,10.065223693847656,7.1251444816589355,-1.0199298858642578
1715114120433570000,12.782570068359375,10.927136421203613,6.943184852600098,-0.7613561153411865
1715114120443520000,12.79252001953125,11.688492774963379,6.6127848625183105,-0.6751648783683777
1715114120453470000,12.802469970703125,12.090718269348145,6.3063273429870605,-0.8140285611152649
1715114120463420000,12.812419921875,12.416330337524414,5.990292549133301,-1.1109095811843872
1715114120473369900,12.822369873046876,12.679692268371582,5.501875400543213,-1.5418659448623657
1715114120483319800,12.83231982421875,12.703634262084961,4.955997467041016,-2.10210919380188
1715114120493269800,12.842269775390625,12.287043571472168,4.620809078216553,-2.5522189140319824
1715114120503219700,12.8522197265625,11.635820388793945,4.505887508392334,-2.5474305152893066
1715114120513169700,12.862169677734375,10.898406028747559,4.534617900848389,-1.987187385559082
1715114120523119600,12.87211962890625,10.256759643554688,4.592078685760498,-1.1252747774124146
1715114120533069600,12.882069580078126,9.768342971801758,4.534617900848389,-0.2968810200691223
1715114120543019500,12.89201953125,9.38048267364502,4.357447147369385,0.2968810200691223
1715114120552969500,12.901969482421874,9.074024200439453,4.10366153717041,0.5650315880775452
1715114120562919400,12.91191943359375,8.772355079650879,3.7876269817352295,0.5315127968788147
1715114120572869400,12.921869384765625,8.604761123657227,3.4572272300720215,0.26336219906806946
1715114120582819300,12.9318193359375,8.53293514251709,2.9975404739379883,-0.12449848651885986
1715114120592769300,12.941769287109375,8.255207061767578,2.63362193107605,-0.5841852426528931
1715114120602719200,12.95171923828125,7.95832633972168,2.494758129119873,-0.9672574996948242
