time,seconds_elapsed,z,y,x
1715114107826875100,0.175875244140625,12.841300964355469,3.1268274784088135,-0.13587094843387604
1715114107836845000,0.185844970703125,13.66490650177002,3.1890766620635986,-0.3274070918560028
1715114107846795000,0.195794921875,14.086285591125488,3.050212860107422,-0.5620388388633728
1715114107856745000,0.205744873046875,14.48851203918457,2.959233283996582,-0.8876502513885498
1715114107866695000,0.21569482421875,14.842853546142578,3.026270866394043,-1.371279001235962
1715114107876644900,0.225644775390625,15.000870704650879,3.44765043258667,-1.6154875755310059
1715114107886594800,0.2355947265625,15.364789009094238,4.022258758544922,-1.3186066150665283
1715114107896544800,0.245544677734375,15.331270217895508,4.529829502105713,-0.5333084464073181
1715114107906494700,0.25549462890625,15.173253059387207,4.98472785949707,0.16579847037792206
1715114107916444700,0.265444580078125,14.167688369750977,5.051765441894531,0.5009866952896118
1715114107926394600,0.27539453125,12.434286117553711,4.831499099731445,0.10833762586116791
1715114107936344600,0.285344482421875,10.351330757141113,4.54419469833374,-0.6338648796081543
1715114107946294500,0.29529443359375,8.766369819641113,4.2760443687438965,-1.2611457109451294
1715114107956244500,0.305244384765625,8.972270965576172,4.146757125854492,-1.4622586965560913
1715114107966194400,0.3151943359375,10.892420768737793,4.410119533538818,-1.6442179679870605
1715114107976144400,0.325144287109375,12.012907028198242,4.280832767486572,-1.3521254062652588
1715114107986094300,0.33509423828125,11.672930717468262,3.4332852363586426,-0.6482301354408264
1715114107996044300,0.345044189453125,10.878055572509766,2.5953147411346436,-0.6338648796081543
1715114108005994200,0.354994140625,9.65222454071045,2.3367409706115723,-0.9068039059638977
1715114108015944400,0.3649443359375,7.7847466468811035,2.6001031398773193,-0.8876502513885498
1715114108025894400,0.374894287109375,6.477512836456299,3.4811692237854004,-0.3034650683403015
1715114108035844400,0.38484423828125,6.467936038970947,4.831499099731445,0.44831427931785583
1715114108045794600,0.394794677734375,6.554127216339111,4.821922302246094,0.8170213103294373
1715114108055744500,0.40474462890625,6.66904878616333,3.8977603912353516,1.999756932258606
1715114108065694700,0.41469482421875,7.171831130981445,2.5282769203186035,2.301426410675049
1715114108075644700,0.424644775390625,7.703343868255615,1.1252747774124146,2.02848744392395
1715114108085594600,0.4345947265625,8.201337814331055,0.646434485912323,1.6310498714447021
1715114108095544800,0.444544921875,8.469488143920898,1.1061211824417114,1.2527660131454468
1715114108105494800,0.454494873046875,8.196549415588379,2.1164743900299072,0.9127894043922424
1715114108115445000,0.464445068359375,7.597999095916748,3.0310592651367188,0.5105634927749634
1715114108125395000,0.47439501953125,6.807912349700928,3.5051112174987793,0.40521863102912903
1715114108135345000,0.484344970703125,6.4200520515441895,3.8163576126098633,0.03172317147254944
1715114108145295000,0.494295166015625,6.764816761016846,4.2951979637146,-0.4040215313434601
1715114108155245000,0.5042451171875,6.750451564788818,4.4292731285095215,-0.07841010391712189
1715114108165195300,0.5141953125,6.539762020111084,4.3861775398254395,0.7978677153587341
1715114108175145200,0.524145263671875,6.166266441345215,4.170699596405029,1.4826093912124634
1715114108185095200,0.53409521484375,5.864596843719482,3.8786067962646484,1.6789339780807495
1715114108195045400,0.54404541015625,5.385756492614746,3.6774938106536865,1.7363947629928589
1715114108204995300,0.553995361328125,4.906916618347168,3.6583402156829834,1.7028759717941284
1715114108214945300,0.5639453125,4.873397350311279,3.758896589279175,0.9271546006202698
1715114108224895500,0.5738955078125,4.107253074645996,3.471592426300049,-1.0648212432861328
1715114108234845400,0.583845458984375,4.394556999206543,3.5960910320281982,-1.787870168685913
1715114108244795600,0.593795654296875,5.476736545562744,4.108449935913086,-1.6394295692443848
1715114108254745600,0.60374560546875,5.912481307983398,4.620809078216553,-1.4287399053573608
1715114108264695600,0.613695556640625,5.8885393142700195,4.869806289672852,-0.6817489266395569
1715114108274645800,0.623645751953125,5.677849292755127,4.76924991607666,-0.27473464608192444
1715114108284595700,0.633595703125,5.553350925445557,4.3191399574279785,-0.6290764808654785
1715114108294546000,0.6435458984375,5.8215012550354,3.845088005065918,-1.20368492603302
1715114108304495900,0.653495849609375,6.424840450286865,3.7876269817352295,-1.2563573122024536
1715114108314445800,0.66344580078125,7.449558734893799,4.055777549743652,-1.2802993059158325
1715114108324396000,0.67339599609375,8.96269416809082,4.367023944854736,-1.5819687843322754
1715114108334346000,0.683345947265625,9.791088104248047,4.338293552398682,-1.6059107780456543
1715114108344296200,0.693296142578125,10.140641212463379,4.151545524597168,-0.5716156363487244
1715114108354246100,0.70324609375,10.451887130737305,3.8738183975219727,1.8848352432250977
1715114108364196000,0.713196044921875,12.261903762817383,3.974374771118164,2.2679076194763184
1715114108374146300,0.723146240234375,14.191630363464355,3.7493197917938232,-2.764704465866089
1715114108384096300,0.73309619140625,16.293739318847656,4.10366153717041,-6.1501054763793945
1715114108394046500,0.74304638671875,15.508441925048828,4.113238334655762,-5.704783916473389
1715114108403996400,0.752996337890625,14.134169578552246,3.9456443786621094,-4.593874454498291
1715114108413946400,0.7629462890625,13.717578887939453,4.596867084503174,-3.933074951171875
1715114108423896600,0.772896484375,13.24831485748291,5.286397457122803,-2.9945478439331055
1715114108433846500,0.782846435546875,13.334506034851074,5.477933406829834,-2.2236149311065674
1715114108443796500,0.79279638671875,13.885172843933105,5.07570743560791,-2.0272903442382812
1715114108453746700,0.80274658203125,14.656105995178223,4.333505153656006,-2.1326351165771484
1715114108463696600,0.812696533203125,15.881937026977539,3.845088005065918,-2.1134815216064453
1715114108473646800,0.822646728515625,17.04073143005371,3.2561142444610596,-2.338536500930786
1715114108483596800,0.8325966796875,16.882713317871094,2.4181437492370605,-2.8556840419769287
1715114108493546800,0.842546630859375,15.388731002807617,2.0207061767578125,-3.4159271717071533
1715114108503497000,0.8524970703125,13.382390022277832,2.073378562927246,-3.5930981636047363
1715114108513447000,0.862447021484375,11.505335807800293,1.8770540952682495,-3.8133647441864014
1715114108523397000,0.872397216796875,10.33217716217041,1.8148049116134644,-3.909132719039917
1715114108533347000,0.88234716796875,9.700108528137207,1.8291701078414917,-3.315370798110962
1715114108543297000,0.892297119140625,9.412803649902344,1.9393033981323242,-2.079962730407715
1715114108553247200,0.902247314453125,9.259574890136719,2.121262788772583,-1.0743980407714844
1715114108563197200,0.912197265625,9.173383712768555,2.1978771686553955,-0.24121582508087158
1715114108573147400,0.9221474609375,8.450334548950195,2.1356279850006104,0.39564183354377747
1715114108583097300,0.932097412109375,7.918822288513184,2.1356279850006104,0.5536591410636902
1715114108593047300,0.94204736328125,7.832630634307861,1.9105730056762695,0.8361749649047852
1715114108602997500,0.95199755859375,7.82305383682251,1.5849615335464478,1.128267526626587
1715114108612947500,0.961947509765625,7.023390769958496,1.1444283723831177,1.0516531467437744
1715114108622897700,0.971897705078125,7.569268703460693,1.7764976024627686,0.041299980133771896
1715114108632847600,0.98184765625,7.779958248138428,1.8148049116134644,-0.5476736426353455
1715114108642797600,0.991797607421875,7.454347133636475,1.2497732639312744,-0.7056909799575806
1715114108652747800,1.001747802734375,6.898892402648926,0.9959878921508789,-0.7535749673843384
1715114108662697700,1.01169775390625,6.008249282836914,1.072602391242981,-0.7775170207023621
1715114108672647700,1.021647705078125,4.81593656539917,1.2737152576446533,-0.6482301354408264
1715114108682598000,1.031597900390625,4.030638694763184,1.6184803247451782,-0.29388827085494995
1715114108692547800,1.0415478515625,3.954024076461792,1.968033790588379,0.14185644686222076
1715114108702498000,1.051498046875,4.389768600463867,2.145204782485962,0.41958385705947876
1715114108712448000,1.061447998046875,4.887762546539307,2.1116859912872314,0.5153518915176392
1715114108722398000,1.07139794921875,5.792770862579346,1.7286136150360107,0.21368250250816345
1715114108732348200,1.08134814453125,5.778405666351318,1.8579005002975464,0.40043023228645325
1715114108742298000,1.091298095703125,5.8837504386901855,2.432508945465088,0.414795458316803
1715114108752248300,1.101248291015625,6.252457618713379,2.8107926845550537,0.314238965511322
1715114108762198300,1.1111982421875,5.917269706726074,2.935291290283203,0.3477577865123749
1715114108772148200,1.121148193359375,5.558139324188232,3.2752678394317627,0.6637924313545227
1715114108782098200,1.13109814453125,5.170278549194336,3.9264907836914062,1.104325532913208
1715114108792048400,1.14104833984375,5.0266265869140625,4.7836151123046875,1.3437457084655762
1715114108801998300,1.150998291015625,5.13197135925293,5.343858242034912,1.731606364250183
1715114108811948300,1.1609482421875,5.270834922790527,5.870582580566406,1.8082208633422852
1715114108821898200,1.170898193359375,5.189432144165039,6.200982570648193,1.635838270187378
1715114108831848200,1.18084814453125,5.692214488983154,6.234501361846924,1.3437457084655762
1715114108841798100,1.190798095703125,7.066486358642578,6.167463779449463,1.1857284307479858
1715114108851748400,1.200748291015625,8.617929458618164,5.947196960449219,1.14742112159729
1715114108861698300,1.2106982421875,10.20767879486084,5.688623428344727,1.1426327228546143
1715114108871648300,1.220648193359375,11.979388236999512,5.3342814445495605,1.1186907291412354
1715114108881598200,1.23059814453125,13.497312545776367,5.023035049438477,0.67815762758255
1715114108891548200,1.240548095703125,14.833276748657227,4.975151062011719,0.041299980133771896
1715114108901498400,1.250498291015625,15.738285064697266,5.142745018005371,-0.5093663930892944
1715114108911448300,1.2604482421875,16.01601219177246,5.348646640777588,-0.7966706156730652
1715114108921398300,1.270398193359375,15.80053424835205,5.463568210601807,-0.6099228858947754
1715114108931348200,1.28034814453125,14.986505508422852,5.750872611999512,-0.04010287672281265
1715114108941298200,1.290298095703125,13.64096450805664,6.124367713928223,0.5057750940322876
1715114108951248400,1.300248291015625,12.395978927612305,6.349422931671143,0.6350619792938232
1715114108961198300,1.3101982421875,11.778275489807129,6.1770405769348145,0.5440823435783386
1715114108971148300,1.320148193359375,11.965023040771484,5.506663799285889,0.4866214990615845
1715114108981098200,1.33009814453125,13.028048515319824,4.764461517333984,0.2950853705406189
1715114108991048200,1.340048095703125,14.445415496826172,3.9839515686035156,-0.016160860657691956
1715114109000998100,1.349998046875,15.436614990234375,3.2417490482330322,-0.2890998423099518
1715114109010948400,1.3599482421875,15.565902709960938,2.513911724090576,-0.5285200476646423
1715114109020898300,1.369898193359375,14.560338020324707,2.0925323963165283,-0.46627077460289
1715114109030848300,1.37984814453125,12.81735897064209,2.1739351749420166,0.10354922711849213
1715114109040798200,1.389798095703125,11.184513092041016,2.1595699787139893,0.9271546006202698
1715114109050748200,1.399748046875,10.868478775024414,1.800439715385437,1.8896236419677734
1715114109060698400,1.409698486328125,11.136629104614258,1.5083470344543457,2.741959571838379
1715114109070648300,1.4196484375,11.174936294555664,1.4460978507995605,2.919130325317383
1715114109080598300,1.429598388671875,10.78228759765625,1.2114660739898682,2.449866771697998
1715114109090548500,1.439548583984375,10.15021800994873,0.7852981686592102,1.6645687818527222
1715114109100498400,1.44949853515625,9.446322441101074,0.37828385829925537,0.8888474106788635
1715114109110448600,1.45944873046875,8.771158218383789,0.181959331035614,0.2041056901216507
1715114109120398600,1.469398681640625,8.0145902633667,0.2585737705230713,-0.3034650683403015
1715114109130348500,1.4793486328125,6.941987991333008,0.4357447028160095,-0.5764040350914001
1715114109140298800,1.489298828125,5.850231647491455,0.7709329724311829,-0.6051344871520996
1715114109150248700,1.499248779296875,4.859032154083252,1.115697979927063,-0.5093663930892944
1715114109160199000,1.509198974609375,4.006696701049805,1.4891934394836426,-0.1693897694349289
1715114109170148900,1.51914892578125,3.489548921585083,2.0015525817871094,0.5153518915176392
1715114109180098800,1.529098876953125,3.3746273517608643,2.5091233253479004,1.3533225059509277
1715114109190049000,1.539049072265625,3.307589530944824,2.8107926845550537,1.8848352432250977
1715114109199999000,1.5489990234375,3.1304187774658203,2.983175277709961,2.076371431350708
1715114109209949000,1.558948974609375,2.93888258934021,3.2417490482330322,1.9949685335159302
1715114109219899100,1.568899169921875,2.800018787384033,3.5386300086975098,1.8034324645996094
1715114109229849000,1.57884912109375,2.9532477855682373,3.5721490383148193,1.3868412971496582
1715114109239799300,1.58879931640625,3.4512417316436768,3.4811692237854004,0.922366201877594
1715114109249749200,1.598749267578125,3.7816414833068848,3.60566782951355,0.5345055460929871
1715114109259699200,1.60869921875,3.75291109085083,3.9408559799194336,0.23762452602386475
1715114109269649400,1.6186494140625,3.6379895210266113,4.175487995147705,0.0077811554074287415
1715114109279599400,1.628599365234375,4.083311080932617,4.2329487800598145,-0.05446808785200119
1715114109289549600,1.638549560546875,5.050568580627441,4.381389141082764,0.03651157766580582
1715114109299499500,1.64849951171875,6.1519012451171875,4.572925090789795,0.24241292476654053
1715114109309449500,1.658449462890625,6.831854343414307,4.6734819412231445,0.314238965511322
1715114109319399700,1.668399658203125,6.98508358001709,4.668693542480469,0.14185644686222076
1715114109329349600,1.678349609375,7.128735542297363,4.639962673187256,-0.322618693113327
1715114109339299800,1.6882998046875,7.6075758934021,4.620809078216553,-0.9355342984199524
1715114109349249800,1.698249755859375,8.723274230957031,4.4723687171936035,-1.4814122915267944
1715114109359199700,1.70819970703125,10.202890396118164,4.2329487800598145,-1.9937714338302612
1715114109369150000,1.71814990234375,11.653777122497559,4.218583583831787,-2.4007856845855713
1715114109379100000,1.728099853515625,12.51090145111084,4.338293552398682,-2.5252842903137207
1715114109389050000,1.738050048828125,12.659341812133789,4.683058738708496,-2.1996726989746094
1715114109399000000,1.748,12.611457824707031,5.128379821777344,-1.7926585674285889
1715114109408950000,1.757949951171875,12.798205375671387,5.386953830718994,-1.6298527717590332
1715114109418900200,1.767900146484375,13.071144104003906,5.501875400543213,-1.548449993133545
1715114109428850200,1.77785009765625,13.085509300231934,5.631162166595459,-1.371279001235962
1715114109438800100,1.787800048828125,12.755109786987305,5.928043365478516,-1.103128433227539
1715114109448750300,1.797750244140625,12.36724853515625,6.320692539215088,-0.49978959560394287
1715114109458700300,1.8077001953125,12.204442977905273,6.6127848625183105,0.1322796493768692
1715114109468650500,1.817650390625,12.702437400817871,6.703764915466309,0.6685808300971985
1715114109478600400,1.827600341796875,13.741520881652832,6.449979305267334,1.1665748357772827
1715114109488550400,1.83755029296875,15.221137046813965,5.774814605712891,1.3964180946350098
1715114109498500600,1.84750048828125,16.62892723083496,4.855441093444824,1.3102269172668457
1715114109508450600,1.857450439453125,17.04551887512207,3.883395195007324,0.7691373229026794
1715114109518400800,1.86740087890625,16.384719848632812,3.136404275894165,0.055665191262960434
1715114109528350700,1.877350830078125,14.790181159973145,2.604891538619995,-0.739209771156311
1715114109538300700,1.88730078125,12.865242958068848,2.279279947280884,-1.4718354940414429
1715114109548251000,1.8972509765625,11.155782699584961,2.0877439975738525,-1.8070237636566162
1715114109558200800,1.907200927734375,9.805453300476074,2.0398597717285156,-1.692102074623108
1715114109568151000,1.917151123046875,8.910021781921387,2.0829553604125977,-1.1749545335769653
1715114109578101000,1.92710107421875,8.38808536529541,2.0590133666992188,-0.5907692909240723
1715114109588051000,1.937051025390625,8.258798599243164,1.968033790588379,-0.18375498056411743
1715114109598001200,1.947001220703125,8.507795333862305,1.699883222579956,0.012569558806717396
1715114109607951000,1.956951171875,8.914810180664062,1.3646949529647827,0.055665191262960434
1715114109617901300,1.9669013671875,9.264363288879395,1.0295066833496094,-0.04489128291606903
1715114109627851300,1.976851318359375,9.498994827270508,0.7326257228851318,-0.15023615956306458
1715114109637801200,1.98680126953125,9.216479301452637,0.49799394607543945,-0.2555810213088989
1715114109647751400,1.99675146484375,8.44554615020752,0.3256114423274994,-0.46627077460289
1715114109657701400,2.006701416015625,7.372944355010986,0.15322890877723694,-0.6913257241249084
1715114109667651300,2.0166513671875,6.448782444000244,0.507570743560791,0.558447539806366
1715114109677601500,2.0266015625,6.252457618713379,1.1492167711257935,1.9901801347732544
1715114109687551500,2.036551513671875,5.285200119018555,1.2497732639312744,0.314238965511322
1715114109697501700,2.046501708984375,4.696226596832275,1.3503297567367554,-1.2372037172317505
1715114109707451600,2.05645166015625,3.604470729827881,1.4317326545715332,-0.9068039059638977
1715114109717401600,2.066401611328125,2.828749418258667,1.3072341680526733,-0.07841010391712189
1715114109727351800,2.076351806640625,2.8862102031707764,1.3934253454208374,-0.3321954905986786
1715114109737301800,2.0863017578125,2.9532477855682373,1.7094600200653076,-1.026513934135437
1715114109747252000,2.096251953125,2.8191723823547363,2.054224967956543,-1.184531331062317
1715114109757202000,2.106201904296875,2.962824583053589,2.2409727573394775,-0.8637082576751709
1715114109767151900,2.11615185546875,3.7002387046813965,2.557007312774658,-0.5716156363487244
1715114109777102000,2.12610205078125,4.734533786773682,3.1699230670928955,-0.18375498056411743
1715114109787052000,2.136052001953125,5.361814498901367,3.840299606323242,0.2902969419956207
1715114109797002200,2.146002197265625,5.558139324188232,4.156333923339844,0.38127660751342773
1715114109806952200,2.1559521484375,6.233304023742676,4.323928356170654,-0.11671733111143112
1715114109816902100,2.165902099609375,7.243657112121582,4.491522312164307,-0.518943190574646
1715114109826852400,2.175852294921875,8.368931770324707,4.817133903503418,-0.4040215313434601
1715114109836802300,2.18580224609375,9.637859344482422,5.171475887298584,0.15143325924873352
1715114109846752300,2.195752197265625,10.700884819030762,5.449203014373779,0.7356184720993042
1715114109856702500,2.205702392578125,12.017695426940918,5.588066577911377,1.1761516332626343
1715114109866652400,2.21565234375,13.348871231079102,5.506663799285889,1.348534107208252
1715114109876602600,2.2256025390625,14.48851203918457,5.315127849578857,1.080383539199829
1715114109886552600,2.235552490234375,15.01044750213623,5.152322292327881,0.5392939448356628
1715114109896502500,2.24550244140625,15.369577407836914,4.970362663269043,0.012569558806717396
1715114109906452700,2.25545263671875,16.0112247467041,4.802768707275391,-0.24121582508087158
1715114109916402700,2.265402587890625,16.825252532958984,4.51067590713501,-0.46627077460289
1715114109926353000,2.275352783203125,17.366342544555664,4.443638324737549,-0.9403226971626282
1715114109936302800,2.285302734375,17.179594039916992,4.553771495819092,-1.5005658864974976
1715114109946252800,2.295252685546875,15.901090621948242,4.525041103363037,-2.012925148010254
1715114109956203000,2.305203125,14.201207160949707,4.922478675842285,-1.9602526426315308
1715114109966153000,2.315153076171875,12.563573837280273,5.348646640777588,-1.5819687843322754
1715114109976103200,2.325103271484375,11.658565521240234,5.655104637145996,-0.7823054194450378
1715114109986053000,2.33505322265625,11.232397079467773,5.985504150390625,0.1322796493768692
1715114109996003000,2.345003173828125,11.218031883239746,5.980715751647949,1.0564415454864502
1715114110005953300,2.354953369140625,11.711237907409668,5.5545477867126465,1.6310498714447021
1715114110015903200,2.3649033203125,12.592304229736328,4.884171485900879,1.6789339780807495
1715114110025853400,2.374853515625,13.047202110290527,4.079719543457031,1.3533225059509277
1715114110035803400,2.384803466796875,12.807782173156738,3.28963303565979,1.0851719379425049
1715114110045753300,2.39475341796875,11.859678268432617,2.5665841102600098,0.8888474106788635
1715114110055703600,2.40470361328125,10.557232856750488,1.9632453918457031,0.5488707423210144
1715114110065653500,2.414653564453125,9.489418029785156,1.6711528301239014,0.3860650360584259
1715114110075603500,2.424603515625,8.938752174377441,1.5514427423477173,0.67815762758255
1715114110085553700,2.4345537109375,8.890868186950684,1.4173674583435059,1.0995371341705322
1715114110095503600,2.444503662109375,8.9866361618042,1.2306196689605713,1.3341689109802246
1715114110105453800,2.454453857421875,8.876502990722656,1.0821791887283325,1.3868412971496582
1715114110115403800,2.46440380859375,8.373720169067383,0.9816226959228516,1.3341689109802246
1715114110125354000,2.47435400390625,7.530961513519287,0.9720458984375,1.2288240194320679
1715114110135304000,2.484303955078125,6.716932773590088,1.0773907899856567,1.0947487354278564
1715114110145254100,2.494254150390625,6.156689643859863,1.072602391242981,1.0229226350784302
1715114110155204400,2.504204345703125,5.673060894012451,1.0678139925003052,0.8792705535888672
1715114110165154300,2.514154296875,5.1367597579956055,1.2306196689605713,0.6063315868377686
1715114110175104500,2.5241044921875,4.739322185516357,1.4269442558288574,0.24241292476654053
1715114110185054500,2.534054443359375,4.485537052154541,1.5658079385757446,0.07960720360279083
1715114110195004700,2.544004638671875,4.384980201721191,1.6663644313812256,0.07003039866685867
1715114110204955000,2.553954833984375,4.365826606750488,1.8339585065841675,0.12270283699035645
1715114110214904800,2.56390478515625,4.327519416809082,2.0829553604125977,0.24241292476654053
1715114110224855000,2.57385498046875,3.997119665145874,2.279279947280884,0.33339259028434753
1715114110234805000,2.583804931640625,3.6284127235412598,2.518700122833252,0.46746787428855896
1715114110244755200,2.593755126953125,3.5661635398864746,2.920926094055176,0.7595604658126831
1715114110254705400,2.603705322265625,3.6379895210266113,3.399766445159912,1.14742112159729
1715114110264655400,2.6136552734375,3.7481226921081543,3.754108190536499,1.1857284307479858
1715114110274605600,2.62360546875,4.045003890991211,4.113238334655762,0.8026561141014099
1715114110284555500,2.633555419921875,4.399345397949219,4.529829502105713,0.4818331003189087
1715114110294505700,2.643505615234375,4.878185749053955,4.884171485900879,0.28072014451026917
1715114110304456000,2.6534560546875,5.735310077667236,5.118803024291992,0.21368250250816345
1715114110314406000,2.663406005859375,6.788758754730225,5.257667064666748,0.2232593148946762
1715114110324356000,2.673356201171875,7.703343868255615,5.434837818145752,-0.0017956512747332454
1715114110334306000,2.68330615234375,8.47906494140625,5.7556610107421875,-0.22206220030784607
1715114110344256300,2.69325634765625,9.446322441101074,5.92325496673584,-0.011372458189725876
1715114110354206500,2.70320654296875,10.42315673828125,6.076483726501465,0.33339259028434753
1715114110364156400,2.713156494140625,11.127052307128906,6.277596950531006,0.5823895931243896
1715114110374106600,2.723106689453125,11.6058931350708,6.3973069190979,0.9798270463943481
1715114110384056600,2.733056640625,11.979388236999512,6.36378812789917,1.3628993034362793
1715114110394006800,2.7430068359375,12.252326965332031,6.18182897567749,1.2958617210388184
1715114110403956700,2.752956787109375,12.30978775024414,5.846640586853027,0.8649053573608398
1715114110413906700,2.76290673828125,12.190077781677246,5.396530628204346,0.19931729137897491
1715114110423857000,2.77285693359375,12.175712585449219,5.070919036865234,-0.595557689666748
1715114110433806800,2.782806884765625,12.40076732635498,5.0469770431518555,-1.2802993059158325
1715114110443757000,2.792757080078125,12.520478248596191,5.286397457122803,-1.6154875755310059
1715114110453707000,2.80270703125,12.40076732635498,5.679046630859375,-1.4862006902694702
1715114110463657000,2.812656982421875,11.993753433227539,6.14831018447876,-1.0696096420288086
1715114110473607200,2.822607177734375,11.591527938842773,6.5265936851501465,-0.48063600063323975
1715114110483557000,2.83255712890625,11.280281066894531,6.780379295349121,0.055665191262960434
1715114110493507300,2.84250732421875,11.328165054321289,6.938396453857422,0.7499836683273315
1715114110503457300,2.852457275390625,12.099098205566406,6.818686485290527,1.449090600013733
1715114110513407200,2.8624072265625,13.253103256225586,6.258443355560303,1.6741455793380737
1715114110523357400,2.872357421875,13.8468656539917,5.410895824432373,1.4059948921203613
1715114110533307400,2.882307373046875,13.621810913085938,4.5825018882751465,0.8984242081642151
1715114110543257600,2.892257568359375,12.846089363098145,3.8115692138671875,0.18974047899246216
1715114110553207600,2.90220751953125,11.716026306152344,3.1507694721221924,-0.7104793787002563
1715114110563157500,2.912157470703125,10.605116844177246,2.801215887069702,-1.61069917678833
1715114110573107700,2.922107666015625,9.71926212310791,2.719813108444214,-2.075174331665039
1715114110583057700,2.9320576171875,9.034520149230957,2.7724854946136475,-1.9794062376022339
1715114110593007900,2.9420078125,8.718485832214355,2.8826189041137695,-1.3856441974639893
1715114110602957800,2.951957763671875,8.579621315002441,2.9688100814819336,-0.6099228858947754
1715114110612907800,2.96190771484375,8.699332237243652,2.935291290283203,0.03651157766580582
1715114110622858000,2.97185791015625,9.135076522827148,2.652775526046753,0.5440823435783386
1715114110632808000,2.981807861328125,9.695320129394531,2.2409727573394775,0.7643488645553589
1715114110642758000,2.9917578125,10.05923843383789,1.920149803161621,0.8170213103294373
1715114110652708000,3.0017080078125,10.102334022521973,1.6424223184585571,0.8888474106788635
1715114110662658000,3.011657958984375,9.762357711791992,1.4460978507995605,0.8170213103294373
1715114110672608300,3.021608154296875,9.23563289642334,1.3503297567367554,0.6542156338691711
1715114110682558200,3.03155810546875,8.282740592956543,1.2737152576446533,0.414795458316803
1715114110692508200,3.041508056640625,6.841431140899658,1.316810965538025,0.10354922711849213
1715114110702458400,3.051458251953125,5.304353713989258,1.4891934394836426,-0.22685061395168304
1715114110712408300,3.061408203125,3.9636008739471436,1.647210717201233,-0.4423287510871887
1715114110722358500,3.071358642578125,3.02986216545105,1.766920804977417,-0.5285200476646423
1715114110732308500,3.08130859375,2.6180596351623535,1.900996208190918,-0.4040215313434601
1715114110742258400,3.091258544921875,2.340332269668579,2.121262788772583,-0.1933317929506302
1715114110752208600,3.101208740234375,2.182314872741699,2.4372973442077637,0.17537526786327362
1715114110762158600,3.11115869140625,2.517503023147583,2.911349296569824,0.7835025191307068
1715114110772108800,3.12110888671875,3.1208419799804688,3.4572272300720215,1.4299370050430298
1715114110782058800,3.131058837890625,3.886986494064331,3.998316764831543,1.7938556671142578
1715114110792008700,3.1410087890625,4.41849946975708,4.410119533538818,1.6597803831100464
1715114110801959000,3.150958984375,4.739322185516357,4.73573112487793,1.2336124181747437
1715114110811908900,3.160908935546875,5.084087371826172,5.085284233093262,0.8313865661621094
1715114110821859000,3.170859130859375,5.409698963165283,5.468356609344482,0.40521863102912903
1715114110831809000,3.18080908203125,5.807136058807373,5.880159378051758,-0.020949264988303185
1715114110841759000,3.190759033203125,6.3961100578308105,6.3302693367004395,-0.11192893236875534
1715114110851709200,3.200709228515625,7.540538311004639,6.71334171295166,0.4626794755458832
1715114110861659100,3.2106591796875,9.015366554260254,6.9240312576293945,1.30543851852417
1715114110871609000,3.220609130859375,10.432733535766602,6.900089263916016,1.6597803831100464
1715114110881559300,3.230559326171875,11.72081470489502,6.732495307922363,1.5257049798965454
1715114110891509200,3.24050927734375,13.195642471313477,6.512228488922119,1.511339783668518
1715114110901459500,3.25045947265625,14.785392761230469,6.325480937957764,1.7699135541915894
1715114110911409400,3.260409423828125,16.389507293701172,6.2201361656188965,1.7794904708862305
1715114110921359400,3.270359375,17.447744369506836,5.942408561706543,1.5304933786392212
1715114110931309600,3.2803095703125,17.677587509155273,5.616796970367432,0.9463081955909729
1715114110941259500,3.290259521484375,16.825252532958984,5.195417881011963,0.3429693877696991
1715114110951209700,3.300209716796875,15.149311065673828,5.281609058380127,-0.3800795078277588
1715114110961159700,3.31015966796875,13.46379280090332,5.559336185455322,-0.5524620413780212
1715114110971109600,3.320109619140625,12.2188081741333,5.822698593139648,0.30945056676864624
1715114110981059800,3.330059814453125,11.562797546386719,6.574477672576904,1.3581109046936035
1715114110991009800,3.340009765625,10.571598052978516,6.607996463775635,1.8513164520263672
1715114111000960000,3.3499599609375,9.743204116821289,5.9519853591918945,1.813009262084961
1715114111010910000,3.359909912109375,9.791088104248047,5.142745018005371,1.2096704244613647
1715114111020860000,3.36985986328125,9.929951667785645,4.2760443687438965,0.5440823435783386
1715114111030810000,3.37981005859375,9.944316864013672,3.4955344200134277,-0.04489128291606903
1715114111040760000,3.389760009765625,9.700108528137207,2.9065608978271484,-0.2172738015651703
1715114111050710000,3.3997099609375,9.206902503967285,2.494758129119873,0.08439560979604721
1715114111060660200,3.40966015625,8.732851028442383,2.121262788772583,0.5488707423210144
1715114111070610200,3.419610107421875,8.359354972839355,1.843535304069519,1.0516531467437744
1715114111080560400,3.429560302734375,8.062474250793457,1.7956513166427612,1.8177976608276367
1715114111090510300,3.43951025390625,7.861361503601074,1.5179238319396973,2.4211363792419434
1715114111100460300,3.449460205078125,7.981071472167969,1.37906014919281,2.492962598800659
1715114111110410500,3.459410400390625,8.814253807067871,1.5849615335464478,2.382829189300537
1715114111120360400,3.4693603515625,9.125499725341797,1.41257905960083,2.0045454502105713
1715114111130310700,3.479310546875,8.684967041015625,1.3503297567367554,1.4012064933776855
1715114111140260600,3.489260498046875,7.64109468460083,1.6663644313812256,0.8696937561035156
1715114111150210600,3.49921044921875,6.6594719886779785,2.1499931812286377,0.7978677153587341
1715114111160160800,3.509160888671875,5.720944881439209,2.762908697128296,1.30543851852417
1715114111170110700,3.51911083984375,5.098452568054199,3.337517261505127,1.9279309511184692
1715114111180061000,3.52906103515625,4.710591793060303,3.4763808250427246,2.1912930011749268
1715114111190011000,3.539010986328125,4.614823818206787,3.35667085647583,1.832162857055664
1715114111199960800,3.5489609375,4.935647010803223,3.265691041946411,1.4634557962417603
1715114111209911000,3.5589111328125,5.404910564422607,3.1699230670928955,1.4969745874404907
1715114111219861000,3.568861083984375,5.6443305015563965,3.141192674636841,1.4299370050430298
1715114111229811200,3.578811279296875,5.591658115386963,2.9688100814819336,1.2767080068588257
1715114111239761200,3.58876123046875,5.385756492614746,2.959233283996582,1.1522095203399658
1715114111249711000,3.598711181640625,5.170278549194336,3.294421434402466,1.0085574388504028
1715114111259661300,3.608661376953125,4.9164934158325195,3.7205893993377686,0.7930793166160583
1715114111269611300,3.618611328125,4.863820552825928,3.993528366088867,0.5823895931243896
1715114111279561200,3.628561279296875,4.969165802001953,4.1611223220825195,0.4387374520301819
1715114111289511400,3.638511474609375,5.175066947937012,4.41969633102417,0.32860419154167175
1715114111299461400,3.64846142578125,5.428852558135986,4.711789131164551,0.2472013235092163
1715114111309411600,3.65841162109375,5.984307289123535,5.013458251953125,0.4100070297718048
1715114111319361500,3.668361572265625,7.028179168701172,5.243301868438721,0.7930793166160583
1715114111329311500,3.6783115234375,8.44554615020752,5.348646640777588,1.0995371341705322
1715114111339261700,3.68826171875,9.982624053955078,5.382165431976318,1.080383539199829
1715114111349211600,3.698211669921875,11.17972469329834,5.406107425689697,0.8553285598754883
1715114111359161900,3.708161865234375,12.056002616882324,5.420472621917725,0.6829460263252258
1715114111369111800,3.71811181640625,12.664130210876465,5.377377033233643,0.49619829654693604
1715114111379061800,3.728061767578125,12.970587730407715,5.406107425689697,0.18974047899246216
1715114111389012000,3.738011962890625,13.080720901489258,5.4013190269470215,-0.09277531504631042
1715114111398962000,3.7479619140625,13.119028091430664,5.066130638122559,-0.557250440120697
1715114111408912100,3.757912109375,13.109451293945312,4.683058738708496,-1.3090298175811768
1715114111418862000,3.767862060546875,13.210007667541504,4.501099109649658,-2.0464439392089844
1715114111428812000,3.77781201171875,13.545196533203125,4.505887508392334,-2.5300726890563965
1715114111438762200,3.78776220703125,13.66490650177002,4.63517427444458,-2.8173768520355225
1715114111448712200,3.797712158203125,13.061567306518555,5.104437828063965,-2.7982232570648193
1715114111458662400,3.807662353515625,12.065579414367676,5.7125654220581055,-2.539649486541748
1715114111468612400,3.8176123046875,11.328165054321289,6.430825710296631,-1.5867571830749512
1715114111478562300,3.827562255859375,11.112687110900879,6.6127848625183105,-0.4040215313434601
1715114111488512500,3.837512451171875,11.016919136047363,6.507440090179443,0.5440823435783386
1715114111498462500,3.84746240234375,11.107898712158203,6.378153324127197,1.3389573097229004
1715114111508412400,3.857412353515625,11.62983512878418,6.04775333404541,2.167351007461548
1715114111518362600,3.867362548828125,12.180500984191895,5.4013190269470215,2.674921751022339
1715114111528312600,3.8773125,12.108675003051758,4.529829502105713,2.2822728157043457
1715114111538262800,3.8872626953125,11.189301490783691,3.73016619682312,1.104325532913208
1715114111548212700,3.897212646484375,9.623494148254395,3.203441858291626,-0.11671733111143112
1715114111558162700,3.90716259765625,7.971494674682617,2.8586769104003906,-1.0696096420288086
1715114111568113000,3.91711279296875,6.750451564788818,2.676717519760132,-1.754351258277893
1715114111578062800,3.927062744140625,6.223727226257324,2.695871114730835,-2.056020736694336
1715114111588013000,3.937012939453125,6.491878032684326,2.8107926845550537,-1.8261773586273193
1715114111597963000,3.946962890625,7.258022308349609,2.8203697204589844,-1.2563573122024536
1715114111607913200,3.956913330078125,8.29710578918457,2.63362193107605,-0.7248445749282837
1715114111617863200,3.96686328125,9.388861656188965,2.346317768096924,-0.3321954905986786
1715114111627813400,3.9768134765625,10.155006408691406,2.006340980529785,-0.0975637212395668
1715114111637763300,3.986763427734375,10.427945137023926,1.7477672100067139,-0.0065840547904372215
1715114111647713500,3.996713623046875,10.404003143310547,1.6328455209732056,0.002992752008140087
1715114111657663700,4.006663818359375,10.016142845153809,1.5705963373184204,-0.0975637212395668
1715114111667613700,4.01661376953125,9.3026704788208,1.5275006294250488,-0.4040215313434601
1715114111677564000,4.02656396484375,8.38808536529541,1.5658079385757446,-0.6961141228675842
1715114111687513900,4.036513916015625,7.301117897033691,1.6855180263519287,-0.8637082576751709
1715114111697464000,4.046464111328125,6.132747650146484,1.8195933103561401,-0.9642647504806519
1715114111707414300,4.056414306640625,5.112817764282227,2.0015525817871094,-0.882861852645874
1715114111717364200,4.0663642578125,4.308365821838379,2.231395959854126,-0.6769605278968811
1715114111727314400,4.076314453125,3.7433342933654785,2.4660277366638184,-0.3992331326007843
1715114111737264400,4.086264404296875,3.3889925479888916,2.7916390895843506,0.02693476900458336
1715114111747214600,4.096214599609375,3.317166566848755,3.227383852005005,0.5919663906097412
1715114111757164800,4.106164794921875,3.6092591285705566,3.691859006881714,1.1426327228546143
1715114111767114800,4.11611474609375,3.796006679534912,4.065354347229004,1.3006501197814941
1715114111777065000,4.12606494140625,3.772064685821533,4.477157115936279,0.9798270463943481
1715114111787015000,4.136014892578125,3.8726212978363037,4.850652694702148,0.5728127360343933
1715114111796965000,4.145965087890625,4.226963043212891,5.128379821777344,0.2759317457675934
1715114111806915000,4.1559150390625,4.806359767913818,5.530605792999268,0.03651157766580582
1715114111816865300,4.165865234375,5.529408931732178,6.042964935302734,0.050876785069704056
1715114111826815500,4.1758154296875,6.482301235198975,6.411672115325928,0.26156654953956604
1715114111836765400,4.185765380859375,7.502231121063232,6.7277069091796875,0.42437225580215454
1715114111846715600,4.195715576171875,8.828619003295898,6.938396453857422,0.5536591410636902
1715114111856665600,4.20566552734375,10.62427043914795,6.957550048828125,0.9175778031349182
1715114111866615800,4.21561572265625,12.549208641052246,6.780379295349121,1.3628993034362793
1715114111876566000,4.22556591796875,14.177265167236328,6.512228488922119,1.7076643705368042
1715114111886516000,4.235515869140625,15.489288330078125,6.215347766876221,1.899200439453125
1715114111896466200,4.245466064453125,16.288951873779297,5.7987565994262695,1.856104850769043
1715114111906416000,4.255416015625,16.49964141845703,5.329493045806885,1.4347254037857056
1715114111916366000,4.265365966796875,16.24106788635254,4.941632270812988,0.5632359385490417
1715114111926316300,4.27531640625,15.628151893615723,4.745307922363281,-0.595557689666748
1715114111936266200,4.285266357421875,14.507665634155273,4.726154327392578,-1.270722508430481
1715114111946216400,4.295216552734375,13.166912078857422,4.841075897216797,-1.2755109071731567
1715114111956166400,4.30516650390625,11.993753433227539,5.099649429321289,-0.945111095905304
1715114111966116400,4.315116455078125,10.763134002685547,5.4444146156311035,-0.4854243993759155
1715114111976066600,4.325066650390625,9.690531730651855,5.856217384338379,0.25677812099456787
1715114111986016500,4.3350166015625,9.115922927856445,6.028599739074707,1.128267526626587
1715114111995966700,4.344966796875,9.340977668762207,5.698200225830078,1.4969745874404907
1715114112005916700,4.354916748046875,10.068815231323242,4.884171485900879,1.2958617210388184
1715114112015866600,4.36486669921875,10.796652793884277,3.974374771118164,0.922366201877594
1715114112025816800,4.37481689453125,11.289857864379883,2.9544448852539062,0.5919663906097412
1715114112035766800,4.384766845703125,11.514912605285645,2.0638017654418945,0.4100070297718048
1715114112045716700,4.394716796875,11.404779434204102,1.460463047027588,0.3477577865123749
1715114112055667000,4.4046669921875,11.050437927246094,1.1300631761550903,0.40043023228645325
1715114112065617000,4.414616943359375,10.743980407714844,1.0582371950149536,0.5297171473503113
1715114112075567000,4.424567138671875,10.509347915649414,1.0630255937576294,0.6542156338691711
1715114112085517000,4.43451708984375,10.17416000366211,1.0773907899856567,0.6637924313545227
1715114112095467000,4.444467041015625,9.589975357055664,1.1971008777618408,0.6637924313545227
1715114112105417200,4.454417236328125,8.771158218383789,1.4460978507995605,0.8170213103294373
1715114112115367200,4.4643671875,8.177395820617676,1.8148049116134644,1.1569979190826416
1715114112125317400,4.4743173828125,7.971494674682617,2.1547815799713135,1.544858694076538
1715114112135267300,4.484267333984375,7.789535045623779,2.3702597618103027,1.7028759717941284
1715114112145217300,4.49421728515625,7.2771759033203125,2.557007312774658,1.6549919843673706
1715114112155167500,4.50416748046875,6.688202381134033,2.734178304672241,1.6071078777313232
1715114112165117400,4.514117431640625,6.084863662719727,2.762908697128296,1.592742681503296
1715114112175067600,4.524067626953125,5.4240641593933105,2.7533318996429443,1.468244194984436
1715114112185017600,4.534017578125,4.744110584259033,2.7772738933563232,1.2384008169174194
1715114112194967600,4.543967529296875,4.188655853271484,2.7964274883270264,1.0420763492584229
1715114112204917800,4.553917724609375,3.6379895210266113,2.82515811920166,0.8026561141014099
1715114112214867700,4.56386767578125,3.0585925579071045,3.0166940689086914,0.5297171473503113
1715114112224818000,4.57381787109375,2.5462334156036377,3.308786630630493,0.33339259028434753
1715114112234768000,4.583767822265625,2.3546974658966064,3.6535518169403076,0.23283611238002777
1715114112244717800,4.5937177734375,2.5749640464782715,3.8498764038085938,0.2472013235092163
1715114112254668000,4.60366796875,2.78086519241333,3.9887399673461914,0.12749123573303223
1715114112264618000,4.613617919921875,3.178302764892578,4.304774761199951,-0.016160860657691956
1715114112274568000,4.62356787109375,3.8391025066375732,4.668693542480469,-0.03531447425484657
1715114112284518100,4.63351806640625,4.705803394317627,4.970362663269043,-0.011372458189725876
1715114112294468000,4.643468017578125,5.653907299041748,5.276820659637451,-0.020949264988303185
1715114112304418300,4.653418212890625,6.597222805023193,5.568912982940674,-0.03531447425484657
1715114112314368300,4.6633681640625,7.6315178871154785,5.813121795654297,-0.0017956512747332454
1715114112324318200,4.673318115234375,8.752004623413086,6.081272125244141,0.24241292476654053
1715114112334268400,4.683268310546875,10.097545623779297,6.344634532928467,0.7212532758712769
1715114112344218400,4.69321826171875,11.500547409057617,6.512228488922119,1.2862848043441772
1715114112354168600,4.70316845703125,12.798205375671387,6.665457725524902,1.6262614727020264
1715114112364118500,4.713118408203125,13.717578887939453,6.689399719238281,1.6166846752166748
1715114112374068500,4.723068359375,14.1628999710083,6.598419666290283,1.425148606300354
1715114112384018700,4.733018798828125,13.885172843933105,6.464344501495361,1.0708067417144775
1715114112393968600,4.74296875,13.095086097717285,6.392518520355225,0.6254851818084717
1715114112403918800,4.7529189453125,12.30978775024414,6.358999729156494,0.11791443079710007
1715114112413868800,4.762868896484375,11.644200325012207,6.320692539215088,-0.47584760189056396
1715114112423818800,4.77281884765625,10.83974838256836,6.54574728012085,-1.246780514717102
1715114112433769000,4.78276904296875,9.977835655212402,6.981492042541504,-1.9075802564620972
1715114112443719000,4.792718994140625,9.321824073791504,7.264008045196533,-1.7256208658218384
1715114112453669000,4.802669189453125,9.45111083984375,7.3693528175354,-0.7918822169303894
1715114112463619000,4.812619140625,10.571598052978516,7.383718013763428,0.5680243372917175
1715114112473569000,4.822569091796875,12.295422554016113,7.129932880401611,1.9422961473464966
1715114112483519200,4.832519287109375,13.952210426330566,6.665457725524902,2.847304344177246
1715114112493469200,4.84246923828125,14.838065147399902,5.999869346618652,3.005321741104126
1715114112503419100,4.852419189453125,14.67047119140625,5.018246650695801,2.320580005645752
1715114112513369300,4.862369384765625,13.73194408416748,3.9408559799194336,0.9175778031349182
1715114112523319300,4.8723193359375,12.429497718811035,3.1076738834381104,-0.7200561761856079
1715114112533269500,4.88226953125,11.012130737304688,2.604891538619995,-2.1757307052612305
1715114112543219500,4.892219482421875,9.546878814697266,2.4420857429504395,-3.0855274200439453
1715114112553169400,4.90216943359375,8.29710578918457,2.5330653190612793,-3.2770636081695557
1715114112563119600,4.91211962890625,7.708132266998291,2.782062292098999,-2.649782657623291
1715114112573069600,4.922069580078125,8.005013465881348,2.9257144927978516,-1.5532383918762207
1715114112583019800,4.932019775390625,8.957905769348145,2.8826189041137695,-0.4423287510871887
1715114112592969700,4.9419697265625,10.011354446411133,2.7724854946136475,0.4770447015762329
1715114112602919700,4.951919677734375,10.705673217773438,2.5713725090026855,1.0995371341705322
1715114112612870000,4.961869873046875,10.916362762451172,2.2457611560821533,1.3581109046936035
1715114112622819800,4.97181982421875,10.614693641662598,1.9728221893310547,1.348534107208252
1715114112632770000,4.98177001953125,9.910798072814941,1.7812861204147339,1.0468647480010986
1715114112642720000,4.991719970703125,8.92917537689209,1.580173134803772,0.5249287486076355
1715114112652670000,5.001669921875,7.909245491027832,1.436521053314209,-0.05925649031996727
1715114112662620200,5.0116201171875,6.903680801391602,1.4173674583435059,-0.5380968451499939
1715114112672570000,5.021570068359375,5.941211700439453,1.4891934394836426,-0.8876502513885498
1715114112682520300,5.031520263671875,5.0266265869140625,1.5705963373184204,-1.002571940422058
1715114112692470300,5.04147021484375,4.140771865844727,1.766920804977417,-0.8972271084785461
1715114112702420200,5.051420166015625,3.5470097064971924,2.140416383743286,-0.41359832882881165
1715114112712370400,5.061370361328125,3.3698389530181885,2.4899697303771973,0.3429693877696991
1715114112722320400,5.0713203125,3.1687259674072266,2.762908697128296,0.7739257216453552
1715114112732270300,5.081270263671875,2.8814218044281006,3.1268274784088135,0.6637924313545227
1715114112742220500,5.091220458984375,2.584540843963623,3.5194764137268066,0.39564183354377747
1715114112752170500,5.10117041015625,2.3977930545806885,3.955221176147461,0.20889410376548767
1715114112762120400,5.111120361328125,2.608482837677002,4.343081951141357,0.09876082092523575
1715114112772070400,5.1210703125,3.0873231887817383,4.63517427444458,0.10354922711849213
1715114112782020400,5.131020263671875,3.604470729827881,5.2672438621521,0.1562216579914093
1715114112791970600,5.140970458984375,4.6914381980896,5.889736175537109,0.5297171473503113
1715114112801920500,5.15092041015625,6.252457618713379,6.2392897605896,1.0755951404571533
1715114112811870500,5.160870361328125,7.454347133636475,6.517016887664795,0.9558850526809692
1715114112821820400,5.1708203125,8.340201377868652,6.703764915466309,0.26156654953956604
1715114112831770400,5.180770263671875,9.159018516540527,6.751648902893066,-0.08319851011037827
1715114112841720600,5.190720458984375,10.11669921875,6.766014099121094,-0.09277531504631042
1715114112851670500,5.20067041015625,11.53885555267334,6.708553314208984,0.17058686912059784
1715114112861620500,5.210620361328125,13.1908540725708,6.45476770401001,0.7068880796432495
1715114112871570400,5.2205703125,14.8189115524292,6.100425720214844,1.18094003200531
1715114112881520400,5.230520263671875,16.18839454650879,5.655104637145996,1.3581109046936035
1715114112891470300,5.24047021484375,17.15565299987793,5.157110691070557,0.922366201877594
1715114112901420500,5.250420654296875,17.174806594848633,4.821922302246094,-0.1215057373046875
1715114112911370500,5.26037060546875,16.039955139160156,4.659116744995117,-1.0935516357421875
1715114112921320400,5.270320556640625,14.229937553405762,4.76924991607666,-1.5053542852401733
1715114112931270400,5.2802705078125,12.587515830993652,5.085284233093262,-1.5436615943908691
1715114112941220400,5.290220458984375,11.155782699584961,5.348646640777588,-1.347337007522583
1715114112951170600,5.300170654296875,9.910798072814941,5.564124584197998,-1.0504560470581055
1715114112961120500,5.31012060546875,8.857349395751953,5.5976433753967285,-0.6099228858947754
1715114112971070500,5.320070556640625,8.301894187927246,5.3342814445495605,-0.284311443567276
1715114112981020400,5.3300205078125,8.3306245803833,4.802768707275391,-0.23163901269435883
1715114112990970400,5.339970458984375,8.933963775634766,4.141968727111816,-0.0975637212395668
1715114113000920600,5.349920654296875,9.910798072814941,3.313575267791748,0.47225627303123474
1715114113010870500,5.35987060546875,11.174936294555664,2.322375535964966,1.1091139316558838
1715114113020820500,5.369820556640625,12.15177059173584,1.4748282432556152,1.4443022012710571
1715114113030770400,5.3797705078125,12.54442024230957,1.039083480834961,1.5496470928192139
1715114113040720400,5.389720458984375,12.688072204589844,0.8619126081466675,1.7028759717941284
1715114113050670600,5.399670654296875,12.822147369384766,0.7565677165985107,1.9087773561477661
1715114113060620500,5.40962060546875,12.72637939453125,0.7613561153411865,1.9949685335159302
1715114113070570800,5.41957080078125,12.142193794250488,0.9816226959228516,1.913565754890442
1715114113080520700,5.429520751953125,11.165359497070312,1.403002142906189,1.8177976608276367
1715114113090470700,5.439470703125,10.020931243896484,1.8148049116134644,1.7747019529342651
1715114113100420900,5.4494208984375,8.723274230957031,2.1356279850006104,1.6597803831100464
1715114113110370800,5.459370849609375,7.454347133636475,2.47560453414917,1.5735890865325928
1715114113120321000,5.469321044921875,6.324283599853516,2.7772738933563232,1.6310498714447021
1715114113130271000,5.47927099609375,5.4911017417907715,2.9544448852539062,1.7459715604782104
1715114113140221000,5.489220947265625,4.796782970428467,3.0597896575927734,1.7699135541915894
1715114113150171100,5.499171142578125,4.217386245727539,3.112462282180786,1.6454150676727295
1715114113160121000,5.50912109375,3.7050271034240723,3.1651346683502197,1.449090600013733
1715114113170071300,5.5190712890625,3.341108560562134,3.1507694721221924,1.2575544118881226
1715114113180021200,5.529021240234375,3.072957992553711,3.098097085952759,0.9271546006202698
1715114113189971200,5.53897119140625,2.8862102031707764,3.1316158771514893,0.5057750940322876
1715114113199921400,5.54892138671875,2.7952303886413574,3.2082302570343018,0.13706804811954498
1715114113209871400,5.558871337890625,2.823961019515991,3.3710360527038574,-0.030526071786880493
1715114113219821600,5.568821533203125,2.7712883949279785,3.643975019454956,-0.08319851011037827
1715114113229771500,5.578771484375,2.828749418258667,3.993528366088867,-0.20769700407981873
1715114113239721500,5.588721435546875,3.1735143661499023,4.2951979637146,-0.4423287510871887
1715114113249671700,5.598671630859375,3.6619315147399902,4.616020679473877,-0.6817489266395569
1715114113259621600,5.60862158203125,4.270058631896973,4.9799394607543945,-0.7870938181877136
1715114113269571600,5.618571533203125,4.729745388031006,5.343858242034912,-0.6434416770935059
1715114113279521800,5.628521728515625,5.146336555480957,5.731719017028809,-0.38965633511543274
1715114113289471700,5.6384716796875,5.969942092895508,6.18182897567749,-0.1885433793067932
1715114113299422000,5.648421875,7.416039943695068,6.540958881378174,0.09397241473197937
1715114113309372000,5.658371826171875,9.551667213439941,6.651092529296875,0.3908534348011017
1715114113319321900,5.66832177734375,11.821371078491211,6.531382083892822,0.39564183354377747
1715114113329272000,5.67827197265625,13.69842529296875,6.315904140472412,-0.0017956512747332454
1715114113339222000,5.688221923828125,14.804546356201172,6.0190229415893555,-0.5668272376060486
1715114113349172200,5.698172119140625,14.895525932312012,5.722142219543457,-1.4000093936920166
1715114113359122200,5.7081220703125,14.40231990814209,5.521028995513916,-2.2667105197906494
1715114113369072000,5.718072021484375,13.784616470336914,5.39174222946167,-2.8125884532928467
1715114113379022300,5.728022216796875,13.18127727508545,5.305551052093506,-3.0184898376464844
1715114113388972300,5.73797216796875,12.860454559326172,5.420472621917725,-2.9753942489624023
1715114113398922500,5.747922607421875,12.644976615905762,5.693411827087402,-2.9753942489624023
1715114113408872400,5.75787255859375,11.984176635742188,6.110002517700195,-2.9753942489624023
1715114113418822400,5.767822509765625,10.935516357421875,6.746860504150391,-2.601898670196533
1715114113428772600,5.777772705078125,9.604340553283691,7.393294811248779,-1.8836381435394287
1715114113438722600,5.78772265625,8.51258373260498,7.929595947265625,-1.2084733247756958
1715114113448672800,5.7976728515625,8.028955459594727,8.101978302001953,-0.5285200476646423
1715114113458622700,5.807622802734375,8.574832916259766,7.848193168640137,0.11791443079710007
1715114113468572700,5.81757275390625,10.33217716217041,7.259219646453857,0.6446388363838196
1715114113478523000,5.82752294921875,12.673707008361816,6.296750545501709,0.922366201877594
1715114113488472800,5.837472900390625,14.61301040649414,5.094861030578613,0.6159083843231201
1715114113498422800,5.8474228515625,15.015235900878906,3.8738183975219727,-0.46627077460289
1715114113508373000,5.857373046875,13.73194408416748,2.959233283996582,-1.9458874464035034
1715114113518323000,5.867322998046875,11.586739540100098,2.427720546722412,-3.224391222000122
1715114113528273200,5.877273193359375,9.384073257446289,2.1930887699127197,-3.9187095165252686
1715114113538223000,5.88722314453125,7.6315178871154785,2.3080103397369385,-3.9905357360839844
1715114113548173000,5.897173095703125,6.539762020111084,2.647987127304077,-3.516483783721924
1715114113558123300,5.907123291015625,6.530185222625732,2.9879636764526367,-2.496553897857666
1715114113568073200,5.9170732421875,7.650671482086182,3.026270866394043,-1.1941081285476685
1715114113578023400,5.9270234375,9.283516883850098,2.806004285812378,-0.24121582508087158
1715114113587973400,5.936973388671875,10.767922401428223,2.427720546722412,0.16579847037792206
1715114113597923300,5.94692333984375,11.57237434387207,1.9536685943603516,0.2472013235092163
1715114113607873500,5.95687353515625,11.409567832946777,1.5418659448623657,0.15143325924873352
1715114113617823500,5.966823486328125,10.494982719421387,1.2641384601593018,-0.23163901269435883
1715114113627773700,5.976773681640625,9.317035675048828,1.039083480834961,-0.7200561761856079
1715114113637723600,5.9867236328125,8.177395820617676,0.9672574996948242,-1.0169371366500854
1715114113647673600,5.996673583984375,7.195773124694824,1.1300631761550903,-0.9594763517379761
1715114113657623800,6.006623779296875,6.276399612426758,1.41257905960083,-0.70090252161026
1715114113667573800,6.01657373046875,5.342660903930664,1.7477672100067139,-0.36571431159973145
1715114113677524000,6.02652392578125,4.499902248382568,2.0877439975738525,0.012569558806717396
1715114113687474000,6.036473876953125,3.647566318511963,2.403778553009033,0.3621230125427246
1715114113697424000,6.046423828125,2.8814218044281006,2.7676970958709717,0.6159083843231201
1715114113707374000,6.0563740234375,2.3355438709259033,3.203441858291626,0.8984242081642151
1715114113717324000,6.066323974609375,2.0386626720428467,3.6535518169403076,1.1569979190826416
1715114113727274000,6.07627392578125,2.0434510707855225,4.141968727111816,1.3293805122375488
1715114113737224200,6.08622412109375,2.24935245513916,4.572925090789795,1.4634557962417603
1715114113747174100,6.096174072265625,2.5079262256622314,5.032611846923828,1.568800687789917
1715114113757124400,6.106124267578125,2.8335378170013428,5.521028995513916,1.6454150676727295
1715114113767074300,6.11607421875,3.4799721240997314,5.947196960449219,1.6454150676727295
1715114113777024300,6.126024169921875,4.456806659698486,6.27280855178833,1.4634557962417603
1715114113786974500,6.135974365234375,5.692214488983154,6.521805286407471,1.1186907291412354
1715114113796924400,6.14592431640625,7.047332763671875,6.775590896606445,0.7499836683273315
1715114113806874400,6.155874267578125,8.019378662109375,6.9240312576293945,0.5009866952896118
1715114113816824300,6.16582421875,8.886079788208008,6.976703643798828,0.2950853705406189
1715114113826774500,6.1757744140625,9.815030097961426,7.005434036254883,0.32381579279899597
1715114113836724500,6.185724365234375,11.131840705871582,6.976703643798828,0.5776011347770691
1715114113846674400,6.19567431640625,12.822147369384766,6.876147270202637,0.9989806413650513
1715114113856624400,6.205624267578125,14.387954711914062,6.6127848625183105,1.4778209924697876
1715114113866574300,6.21557421875,15.565902709960938,6.296750545501709,1.5783774852752686
1715114113876524300,6.225524169921875,16.29852867126465,5.870582580566406,1.128267526626587
1715114113886474500,6.235474609375,16.528371810913086,5.382165431976318,0.3190273642539978
1715114113896424400,6.245424560546875,16.06868553161621,5.070919036865234,-0.7679402232170105
1715114113906374400,6.25537451171875,14.909891128540039,5.118803024291992,-1.6490063667297363
1715114113916324400,6.265324462890625,13.195642471313477,5.377377033233643,-1.912368655204773
1715114113926274300,6.2752744140625,11.409567832946777,5.669469833374023,-1.711255669593811
1715114113936224500,6.285224609375,10.011354446411133,5.932831764221191,-1.2611457109451294
1715114113946174500,6.295174560546875,8.991424560546875,6.110002517700195,-0.6817489266395569
1715114113956124400,6.30512451171875,8.325836181640625,6.090848922729492,-0.05925649031996727
1715114113966074400,6.315074462890625,8.26358699798584,5.736507415771484,0.3669114112854004
1715114113976024300,6.3250244140625,8.967482566833496,5.07570743560791,0.4578910768032074
1715114113985974500,6.334974609375,10.011354446411133,4.271255970001221,0.2759317457675934
1715114113995924500,6.344924560546875,10.753557205200195,3.442862033843994,-0.04489128291606903
1715114114005874400,6.35487451171875,10.9307279586792,2.5234885215759277,-0.5237316489219666
1715114114015824400,6.364824462890625,10.60032844543457,1.7334020137786865,-1.0935516357421875
1715114114025774300,6.3747744140625,10.111910820007324,1.3263877630233765,-1.4383167028427124
1715114114035724300,6.384724365234375,10.164583206176758,1.2210428714752197,-1.2515689134597778
1715114114045674500,6.394674560546875,10.988188743591309,1.1779472827911377,-0.6099228858947754
1715114114055624400,6.40462451171875,11.93629264831543,1.1252747774124146,-0.03531447425484657
1715114114065574400,6.414574462890625,12.49174690246582,1.0965443849563599,0.2472013235092163
1715114114075524400,6.4245244140625,12.33372974395752,1.1204863786697388,0.2950853705406189
1715114114085474300,6.434474365234375,11.534067153930664,1.2880805730819702,0.1562216579914093
1715114114095424500,6.444424560546875,10.490194320678711,1.6519991159439087,0.03651157766580582
1715114114105374500,6.45437451171875,9.575610160827637,1.987187385559082,0.01735796220600605
1715114114115324400,6.464324462890625,8.83819580078125,2.2361843585968018,0.13706804811954498
1715114114125274400,6.4742744140625,7.995436668395996,2.4899697303771973,0.3429693877696991
1715114114135224300,6.484224365234375,7.243657112121582,2.7485435009002686,0.5680243372917175
1715114114145174500,6.494174560546875,6.683413982391357,2.8778305053710938,0.7835025191307068
1715114114155124500,6.50412451171875,6.156689643859863,2.959233283996582,0.8936358094215393
1715114114165074400,6.514074462890625,5.529408931732178,3.050212860107422,0.960673451423645
1715114114175024400,6.5240244140625,4.921281814575195,3.112462282180786,1.0995371341705322
1715114114184974300,6.533974365234375,4.241328239440918,3.160346269607544,1.2336124181747437
1715114114194924300,6.54392431640625,3.6284127235412598,3.308786630630493,1.2814964056015015
1715114114204874500,6.55387451171875,3.116053581237793,3.5625722408294678,1.3150153160095215
1715114114214824400,6.563824462890625,2.713827610015869,3.864241600036621,1.3389573097229004
1715114114224774400,6.5737744140625,2.3738510608673096,4.223371982574463,1.3006501197814941
1715114114234724400,6.583724365234375,2.167949676513672,4.611232280731201,1.18094003200531
1715114114244674600,6.593674560546875,2.2014684677124023,5.023035049438477,1.0229226350784302
1715114114254624500,6.60362451171875,2.426523447036743,5.382165431976318,0.8505401611328125
1715114114264574500,6.613574462890625,2.6898856163024902,5.679046630859375,0.6254851818084717
1715114114274524700,6.623524658203125,3.1016883850097656,5.937620162963867,0.4339490532875061
1715114114284474600,6.633474609375,3.800795316696167,6.090848922729492,0.28550854325294495
1715114114294424800,6.6434248046875,4.978742599487305,6.133944988250732,0.07003039866685867
1715114114304374800,6.653374755859375,6.539762020111084,6.234501361846924,-0.0065840547904372215
1715114114314324700,6.66332470703125,8.335412979125977,6.296750545501709,0.21368250250816345
1715114114324275000,6.67327490234375,10.121487617492676,6.248866558074951,0.47225627303123474
1715114114334225000,6.683224853515625,11.759121894836426,6.138733386993408,0.4578910768032074
1715114114344175000,6.693175048828125,13.109451293945312,5.851428985595703,0.13706804811954498
1715114114354125000,6.703125,13.88038444519043,5.4875102043151855,-0.48063600063323975
1715114114364075000,6.713074951171875,14.134169578552246,5.262455463409424,-1.423951506614685
1715114114374025200,6.723025146484375,14.143746376037598,5.137956619262695,-2.3529016971588135
1715114114383975200,6.73297509765625,14.316128730773926,5.027823448181152,-3.157353401184082
1715114114393925000,6.742925048828125,14.589068412780762,5.1331682205200195,-3.846883535385132
1715114114403875300,6.752875244140625,14.335282325744629,5.631162166595459,-4.143764495849609
1715114114413825300,6.7628251953125,13.578715324401855,6.349422931671143,-3.866037130355835
1715114114423775500,6.772775390625,12.563573837280273,6.967126846313477,-3.205237627029419
1715114114433725400,6.782725341796875,11.921927452087402,7.359776020050049,-2.367266893386841
1715114114443675400,6.79267529296875,11.984176635742188,7.350199222564697,-1.5245078802108765
1715114114453625600,6.80262548828125,12.54442024230957,7.129932880401611,-0.8110358119010925
1715114114463575600,6.812575439453125,13.425485610961914,6.7708024978637695,-0.1933317929506302
1715114114473525800,6.82252587890625,14.028824806213379,6.138733386993408,0.28072014451026917
1715114114483475700,6.832475830078125,13.578715324401855,5.386953830718994,0.2232593148946762
1715114114493425700,6.84242578125,12.11825180053711,4.764461517333984,-0.46148237586021423
1715114114503376000,6.8523759765625,10.284293174743652,4.352658748626709,-1.2659341096878052
1715114114513325800,6.862325927734375,8.517372131347656,4.132391929626465,-1.835754156112671
1715114114523276000,6.872276123046875,7.138312339782715,3.9408559799194336,-2.3289597034454346
1715114114533226000,6.88222607421875,6.3961100578308105,3.8163576126098633,-2.654571056365967
1715114114543176000,6.892176025390625,6.166266441345215,3.73016619682312,-2.668936252593994
1715114114553126100,6.902126220703125,6.381744861602783,3.6296098232269287,-2.338536500930786
1715114114563076000,6.912076171875,6.951564788818359,3.361459255218506,-1.8501193523406982
1715114114573026300,6.9220263671875,7.6315178871154785,2.8778305053710938,-1.4287399053573608
1715114114582976300,6.931976318359375,8.268375396728516,2.456450939178467,-1.1605892181396484
1715114114592926200,6.94192626953125,8.704120635986328,2.097320795059204,-0.9020155072212219
1715114114602876400,6.95187646484375,8.87171459197998,1.843535304069519,-0.6482301354408264
1715114114612826400,6.961826416015625,8.89565658569336,1.5945383310317993,-0.5764040350914001
1715114114622776300,6.9717763671875,8.728062629699707,1.3694833517074585,-0.7056909799575806
1715114114632726500,6.9817265625,8.26358699798584,1.2832920551300049,-0.9115923047065735
1715114114642676500,6.991676513671875,7.463923931121826,1.3263877630233765,-1.0648212432861328
1715114114652626700,7.001626708984375,6.367379188537598,1.41257905960083,-1.1318588256835938
1715114114662576600,7.01157666015625,5.1798553466796875,1.53707754611969,-1.20368492603302
1715114114672526600,7.021526611328125,4.298789024353027,1.699883222579956,-1.1605892181396484
1715114114682476500,7.0314765625,3.796006679534912,1.9536685943603516,-0.8637082576751709
1715114114692426500,7.041426513671875,3.580528736114502,2.293645143508911,-0.3513490855693817
1715114114702376700,7.051376708984375,3.47039532661438,2.609679937362671,0.17058686912059784
1715114114712326700,7.06132666015625,3.3506853580474854,2.9544448852539062,0.5823895931243896
1715114114722276600,7.071276611328125,3.1256303787231445,3.399766445159912,0.778714120388031
1715114114732226600,7.0812265625,2.958036184310913,3.892971992492676,0.8457517623901367
1715114114742176500,7.091176513671875,3.02986216545105,4.41969633102417,0.8074445128440857
1715114114752126700,7.101126708984375,3.3219549655914307,4.975151062011719,0.702099621295929
1715114114762076700,7.11107666015625,3.8103721141815186,5.655104637145996,0.7212532758712769
1715114114772026600,7.121026611328125,4.729745388031006,6.191405773162842,0.8026561141014099
1715114114781976600,7.1309765625,5.931634902954102,6.512228488922119,0.7835025191307068
1715114114791926500,7.140926513671875,7.32505989074707,6.751648902893066,0.6494272351264954
1715114114801876500,7.15087646484375,8.65623664855957,6.828263282775879,0.6877344250679016
1715114114811826700,7.16082666015625,9.757569313049316,6.890512466430664,0.6877344250679016
1715114114821776600,7.170776611328125,10.820594787597656,7.062894821166992,0.7260416746139526
1715114114831726600,7.1807265625,12.099098205566406,7.1490864753723145,0.9654618501663208
1715114114841676500,7.190676513671875,13.54040813446045,7.101202011108398,1.1569979190826416
1715114114851626500,7.20062646484375,14.94340991973877,6.876147270202637,1.1857284307479858
1715114114861576700,7.21057666015625,16.049531936645508,6.57926607131958,1.003769040107727
1715114114871526700,7.220526611328125,16.509218215942383,6.2201361656188965,0.5249287486076355
1715114114881476600,7.2304765625,16.6049861907959,5.817910194396973,0.01735796220600605
1715114114891426600,7.240426513671875,16.576255798339844,5.372588634490967,-0.4040215313434601
1715114114901376500,7.25037646484375,16.360776901245117,5.013458251953125,-0.8684966564178467
1715114114911326700,7.26032666015625,15.211560249328613,4.922478675842285,-1.390432596206665
1715114114921276700,7.270276611328125,13.095086097717285,5.262455463409424,-1.6873136758804321
1715114114931226600,7.2802265625,10.619482040405273,5.784391403198242,-1.4287399053573608
1715114114941176600,7.290176513671875,8.775946617126465,6.081272125244141,-0.9498994946479797
1715114114951126500,7.30012646484375,7.861361503601074,6.311115741729736,-0.4710591733455658
1715114114961076500,7.310076416015625,7.430405139923096,6.358999729156494,-0.03531447425484657
1715114114971026700,7.320026611328125,7.45913553237915,6.081272125244141,0.4100070297718048
1715114114980976600,7.3299765625,8.134300231933594,5.449203014373779,0.7835025191307068
1715114114990926600,7.339926513671875,9.427168846130371,4.750096321105957,0.9846154451370239
1715114115000876500,7.34987646484375,10.576386451721191,4.079719543457031,1.0133458375930786
1715114115010826500,7.359826416015625,11.060014724731445,3.423708438873291,0.960673451423645
1715114115020776700,7.369776611328125,10.887632369995117,2.801215887069702,0.7308300733566284
1715114115030726700,7.3797265625,10.327388763427734,2.3702597618103027,0.5488707423210144
1715114115040676600,7.389676513671875,9.906009674072266,2.121262788772583,0.7068880796432495
1715114115050626600,7.39962646484375,9.781511306762695,2.0446481704711914,1.1091139316558838
1715114115060576500,7.409576416015625,9.977835655212402,2.073378562927246,1.511339783668518
1715114115070526700,7.419526611328125,10.145429611206055,2.0446481704711914,1.7363947629928589
1715114115080476700,7.4294765625,9.996989250183105,1.9536685943603516,1.6214730739593506
1715114115090426600,7.439426513671875,9.589975357055664,1.9919757843017578,1.2862848043441772
1715114115100376600,7.44937646484375,9.048885345458984,2.1068975925445557,0.9798270463943481
1715114115110326500,7.459326416015625,8.431180953979492,2.2218191623687744,0.7164648771286011
1715114115120276500,7.4692763671875,7.861361503601074,2.322375535964966,0.5536591410636902
1715114115130226700,7.479226806640625,7.286752700805664,2.408566951751709,0.5249287486076355
1715114115140176600,7.4891767578125,6.597222805023193,2.499546527862549,0.4818331003189087
1715114115150126600,7.499126708984375,5.874173641204834,2.609679937362671,0.49619829654693604
1715114115160076500,7.50907666015625,5.184643745422363,2.7916390895843506,0.7116764783859253
1715114115170026500,7.519026611328125,4.490325450897217,2.935291290283203,1.0995371341705322
1715114115179976700,7.528976806640625,3.796006679534912,3.0597896575927734,1.4730325937271118
1715114115189926700,7.5389267578125,3.111265182495117,3.1938650608062744,1.6789339780807495
1715114115199876600,7.548876708984375,2.3786394596099854,3.332728862762451,1.6789339780807495
1715114115209826600,7.55882666015625,1.679532527923584,3.5194764137268066,1.5161281824111938
1715114115219776500,7.568776611328125,1.3012486696243286,3.7397429943084717,1.2192472219467163
1715114115229726700,7.578726806640625,1.4736311435699463,3.936067581176758,0.9175778031349182
1715114115239676700,7.5886767578125,1.8471266031265259,4.098873138427734,0.5728127360343933
1715114115249626600,7.598626708984375,2.2397756576538086,4.357447147369385,0.1322796493768692
1715114115259576600,7.60857666015625,2.800018787384033,4.644751071929932,-0.20769700407981873
1715114115269526500,7.618526611328125,3.5709519386291504,4.994304656982422,-0.29867666959762573
1715114115279476500,7.6284765625,4.466383457183838,5.439626216888428,-0.46148237586021423
1715114115289426700,7.6384267578125,5.452794551849365,5.822698593139648,-0.46148237586021423
1715114115299376600,7.648376708984375,6.448782444000244,6.196194171905518,-0.20290859043598175
1715114115309326600,7.65832666015625,7.818265438079834,6.603208065032959,0.28550854325294495
1715114115319276500,7.668276611328125,9.59476375579834,6.904877662658691,1.1953052282333374
1715114115329226500,7.6782265625,11.198878288269043,7.206547260284424,2.0667946338653564
1715114115339176700,7.6881767578125,12.573150634765625,7.3454108238220215,2.363675594329834
1715114115349126700,7.698126708984375,13.779828071594238,7.067683219909668,1.9853917360305786
1715114115359076600,7.70807666015625,14.603433609008789,6.507440090179443,1.0420763492584229
1715114115369026600,7.718026611328125,14.962563514709473,5.999869346618652,-0.20290859043598175
1715114115378976500,7.7279765625,15.12536907196045,5.588066577911377,-1.2515689134597778
1715114115388926700,7.7379267578125,15.015235900878906,5.2672438621521,-1.9841946363449097
1715114115398876700,7.747876708984375,14.833276748657227,5.2672438621521,-2.4390928745269775
1715114115408826600,7.75782666015625,14.081497192382812,5.578489780426025,-2.6354174613952637
1715114115418776600,7.767776611328125,12.855666160583496,6.229712963104248,-2.7982232570648193
1715114115428726500,7.7777265625,11.543643951416016,7.038952827453613,-2.429516077041626
1715114115438676500,7.787676513671875,10.56680965423584,7.752425193786621,-1.390432596206665
1715114115448626700,7.797626708984375,10.121487617492676,8.14028549194336,-0.3274070918560028
1715114115458576600,7.80757666015625,10.159794807434082,8.111555099487305,0.5632359385490417
1715114115468526600,7.817526611328125,11.007342338562012,7.766790390014648,1.2814964056015015
1715114115478476500,7.8274765625,12.520478248596191,7.005434036254883,1.8800468444824219
1715114115488426500,7.837426513671875,13.66490650177002,5.971138954162598,2.1051018238067627
1715114115498376700,7.847376708984375,13.535619735717773,4.903325080871582,1.3724761009216309
1715114115508326700,7.85732666015625,12.40076732635498,4.108449935913086,-0.05446808785200119
1715114115518276600,7.867276611328125,10.825383186340332,3.5865142345428467,-1.304241418838501
1715114115528226600,7.8772265625,9.149441719055176,3.2752678394317627,-2.2427685260772705
1715114115538176500,7.887176513671875,7.660248279571533,3.2417490482330322,-2.6880898475646973
1715114115548126700,7.897126708984375,6.961141586303711,3.4380736351013184,-2.6162638664245605
1715114115558076700,7.90707666015625,7.349001884460449,3.6104562282562256,-1.898003339767456
1715114115568026600,7.917026611328125,8.426392555236816,3.60566782951355,-0.6290764808654785
1715114115577976600,7.9269765625,9.728838920593262,3.4332852363586426,0.5776011347770691
1715114115587926500,7.936926513671875,10.72482681274414,3.1699230670928955,1.511339783668518
1715114115597876500,7.94687646484375,11.2467622756958,2.8203697204589844,1.8848352432250977
1715114115607826700,7.95682666015625,11.514912605285645,2.3798365592956543,1.8417396545410156
1715114115617776600,7.966776611328125,11.318588256835938,2.0207061767578125,1.5017629861831665
1715114115627726600,7.9767265625,10.629058837890625,1.7142484188079834,0.9654618501663208
1715114115637676800,7.9866767578125,9.48462963104248,1.436521053314209,0.4387374520301819
1715114115647626800,7.996626708984375,8.100781440734863,1.2832920551300049,-0.0736217051744461
1715114115657576700,8.00657666015625,6.640318393707275,1.2449848651885986,-0.6482301354408264
1715114115667527000,8.01652685546875,5.251681327819824,1.2737152576446533,-1.1558008193969727
1715114115677476900,8.026476806640625,4.021061897277832,1.3311761617660522,-1.3521254062652588
1715114115687427000,8.036427001953125,3.0154969692230225,1.5466543436050415,-1.1605892181396484
1715114115697377000,8.046376953125,2.2685060501098633,1.867477297782898,-0.7344213724136353
1715114115707327000,8.056326904296874,1.703474521636963,2.2218191623687744,-0.2555810213088989
1715114115717277200,8.066277099609374,1.382651448249817,2.647987127304077,0.2519897222518921
1715114115727227100,8.07622705078125,1.3922282457351685,3.1507694721221924,0.8122329115867615
1715114115737177300,8.08617724609375,1.679532527923584,3.6727054119110107,1.425148606300354
1715114115747127300,8.096127197265625,2.206256866455078,4.189853191375732,1.8273744583129883
1715114115757077200,8.1060771484375,2.699462413787842,4.67827033996582,2.0715830326080322
1715114115767027500,8.11602734375,2.962824583053589,5.128379821777344,2.1769278049468994
1715114115776977400,8.125977294921874,3.183091163635254,5.578489780426025,2.052429437637329
1715114115786927400,8.13592724609375,3.647566318511963,5.980715751647949,1.8704700469970703
1715114115796877600,8.145877685546875,4.54299783706665,6.387730121612549,1.7699135541915894
1715114115806827500,8.15582763671875,5.682637691497803,6.722918510437012,1.7220295667648315
1715114115816777700,8.16577783203125,7.205349922180176,6.952761650085449,1.8273744583129883
1715114115826727700,8.175727783203126,9.211690902709961,7.053318023681641,2.3971943855285645
1715114115836677600,8.185677734375,11.2467622756958,7.091625213623047,3.1298201084136963
1715114115846627800,8.1956279296875,12.889184951782227,6.952761650085449,3.4554316997528076
1715114115856577800,8.205577880859375,14.014459609985352,6.617573261260986,3.508104085922241
1715114115866528000,8.215528076171875,14.541184425354004,6.0621185302734375,3.201646327972412
1715114115876478000,8.22547802734375,14.91946792602539,5.530605792999268,2.4163479804992676
1715114115886428000,8.235427978515625,15.379154205322266,5.118803024291992,1.391629695892334
1715114115896378000,8.245378173828126,15.85799503326416,4.879383087158203,0.42437225580215454
1715114115906328000,8.255328125,15.46055793762207,4.821922302246094,-0.27473464608192444
1715114115916278000,8.265278076171874,13.842077255249023,5.061342239379883,-0.5093663930892944
1715114115926228000,8.27522802734375,11.988965034484863,5.564124584197998,-0.41359832882881165
1715114115936178200,8.28517822265625,10.346542358398438,6.04775333404541,-0.2555810213088989
1715114115946128100,8.295128173828125,9.02015495300293,6.57926607131958,0.17537526786327362
1715114115956078000,8.305078125,8.311470985412598,6.9240312576293945,0.884058952331543
1715114115966028000,8.315028076171876,8.732851028442383,6.876147270202637,1.5544354915618896
1715114115975978000,8.32497802734375,10.011354446411133,6.282385349273682,1.8177976608276367
1715114115985928000,8.334927978515625,11.500547409057617,5.339069843292236,1.5831658840179443
1715114115995878100,8.344878173828125,12.980164527893066,4.424484729766846,1.1665748357772827
1715114116005828000,8.354828125,13.980940818786621,3.3518824577331543,0.8984242081642151
1715114116015778000,8.364778076171875,14.009671211242676,2.5091233253479004,0.8313865661621094
1715114116025728000,8.37472802734375,12.937068939208984,2.1595699787139893,1.0468647480010986
1715114116035678000,8.384677978515626,11.313799858093262,2.2409727573394775,1.71245276927948
1715114116045628200,8.394628173828124,10.183736801147461,2.4899697303771973,2.737171173095703
1715114116055578000,8.404578125,9.9586820602417,2.652775526046753,3.465008497238159
1715114116065528000,8.414528076171875,10.226832389831543,2.676717519760132,3.7044286727905273
1715114116075478000,8.42447802734375,10.562021255493164,2.5234885215759277,3.714005470275879
1715114116085428000,8.434427978515625,10.518924713134766,2.470816135406494,3.4841620922088623
1715114116095378200,8.444378173828126,10.054450035095215,2.5522189140319824,3.110666513442993
1715114116105328000,8.454328125,9.29309368133545,2.6144683361053467,2.7467479705810547
1715114116115278000,8.464278076171874,8.244433403015137,2.6240451335906982,2.3493103981018066
1715114116125228000,8.47422802734375,7.238868713378906,2.6240451335906982,1.9662381410598755
1715114116135178000,8.484177978515625,6.3482255935668945,2.585737943649292,1.8082208633422852
1715114116145128000,8.4941279296875,5.443217754364014,2.580949544906616,1.7603367567062378
1715114116155078100,8.504078125,4.461595058441162,2.647987127304077,1.7794904708862305
1715114116165028000,8.514028076171876,3.537432909011841,2.762908697128296,1.8704700469970703
1715114116174978000,8.52397802734375,2.7234044075012207,2.9161376953125,1.975814938545227
1715114116184928000,8.533927978515624,2.033874273300171,3.07415509223938,1.975814938545227
1715114116194878000,8.5438779296875,1.5933412313461304,3.227383852005005,1.8656816482543945
1715114116204828200,8.553828125,1.5406688451766968,3.423708438873291,1.6262614727020264
1715114116214778000,8.563778076171875,1.8471266031265259,3.6535518169403076,1.4443022012710571
1715114116224728000,8.57372802734375,2.3977930545806885,3.9264907836914062,1.3868412971496582
1715114116234678000,8.583677978515626,2.9101521968841553,4.180276393890381,1.3102269172668457
1715114116244628000,8.5936279296875,3.1974563598632812,4.3191399574279785,1.0133458375930786
1715114116254578200,8.603578125,3.1304187774658203,4.481945514678955,0.6590040326118469
1715114116264528100,8.613528076171875,2.981978178024292,4.759673118591309,0.44831427931785583
1715114116274478000,8.62347802734375,3.1304187774658203,5.109226226806641,0.5728127360343933
1715114116284428000,8.633427978515625,3.7002387046813965,5.372588634490967,0.8026561141014099
1715114116294378000,8.6433779296875,4.624400615692139,5.655104637145996,1.003769040107727
1715114116304328000,8.653327880859376,5.87896203994751,5.971138954162598,1.425148606300354
1715114116314278100,8.663278076171874,7.372944355010986,6.14831018447876,1.9806033372879028
1715114116324228000,8.67322802734375,8.981847763061523,6.114790916442871,2.3540987968444824
1715114116334178000,8.683177978515625,10.552444458007812,5.971138954162598,2.411559581756592
1715114116344128000,8.6931279296875,11.926715850830078,5.861005783081055,2.1769278049468994
1715114116354078000,8.703077880859375,12.735956192016602,5.750872611999512,1.6789339780807495
1715114116364028200,8.713028076171875,13.310564041137695,5.731719017028809,0.960673451423645
1715114116373978000,8.72297802734375,13.91390323638916,5.750872611999512,0.25677812099456787
1715114116383928000,8.732927978515624,14.584280014038086,5.774814605712891,-0.36092591285705566
1715114116393878000,8.7428779296875,14.771027565002441,5.861005783081055,-0.9594763517379761
1715114116403828000,8.752827880859375,13.88038444519043,6.167463779449463,-1.4335283041000366
1715114116413778200,8.762778076171875,12.24275016784668,6.6846113204956055,-1.6250643730163574
1715114116423728000,8.77272802734375,10.614693641662598,7.220912456512451,-1.4862006902694702
1715114116433678000,8.782677978515625,9.77672290802002,7.680599212646484,-1.0552444458007812
1715114116443628000,8.7926279296875,10.20767879486084,7.8098859786987305,-0.43754035234451294
1715114116453578000,8.802577880859374,11.87883186340332,7.307103633880615,0.2041056901216507
1715114116463528000,8.81252783203125,13.837288856506348,6.445190906524658,0.6350619792938232
1715114116473478100,8.82247802734375,15.029601097106934,5.631162166595459,0.6542156338691711
1715114116483428000,8.832427978515625,14.91946792602539,4.970362663269043,0.20889410376548767
1715114116493378000,8.8423779296875,13.885172843933105,4.51067590713501,-0.48063600063323975
1715114116503328000,8.852327880859375,12.372036933898926,4.2090067863464355,-1.1222820281982422
1715114116513278000,8.86227783203125,10.820594787597656,4.098873138427734,-1.5771803855895996
1715114116523228200,8.872228271484374,9.618705749511719,4.098873138427734,-1.7064672708511353
1715114116533178000,8.88217822265625,8.905233383178711,4.089296340942383,-1.4862006902694702
1715114116543128000,8.892128173828125,8.541314125061035,4.132391929626465,-0.8732850551605225
1715114116553078000,8.902078125,8.546102523803711,4.223371982574463,0.09876082092523575
1715114116563028000,8.912028076171875,8.99621295928955,4.127603530883789,0.9846154451370239
1715114116572978200,8.921978271484376,9.714473724365234,3.7445313930511475,1.425148606300354
1715114116582928100,8.93192822265625,10.308235168457031,3.2800562381744385,1.5017629861831665
1715114116592878000,8.941878173828124,10.595540046691895,2.8155810832977295,1.324592113494873
1715114116602828000,8.951828125,10.700884819030762,2.255337953567505,0.922366201877594
1715114116612778000,8.961778076171875,10.686519622802734,1.7860745191574097,0.35254621505737305
1715114116622728000,8.97172802734375,10.437521934509277,1.3934253454208374,-0.2603694200515747
1715114116632678100,8.98167822265625,9.733627319335938,1.1204863786697388,-0.7823054194450378
1715114116642628000,8.991628173828126,8.699332237243652,1.0247182846069336,-1.2180501222610474
1715114116652578000,9.001578125,7.775169849395752,1.0773907899856567,-1.4814122915267944
1715114116662528000,9.011528076171874,7.071274757385254,1.158793568611145,-1.567603588104248
1715114116672478000,9.02147802734375,6.3961100578308105,1.2306196689605713,-1.5723919868469238
1715114116682428200,9.03142822265625,5.807136058807373,1.3742717504501343,-1.3808557987213135
1715114116692378000,9.041378173828125,5.438429355621338,1.6184803247451782,-0.9163807034492493
1715114116702328000,9.051328125,5.122394561767578,1.843535304069519,-0.4471171796321869
1715114116712278000,9.061278076171876,4.720168590545654,2.097320795059204,-0.1454477459192276
1715114116722228000,9.07122802734375,4.2509050369262695,2.3989901542663574,0.10354922711849213
1715114116732178200,9.08117822265625,3.843890905380249,2.75812029838562,0.42437225580215454
1715114116742128000,9.091128173828125,3.7193922996520996,3.136404275894165,0.7499836683273315
1715114116752078000,9.101078125,3.8295257091522217,3.490746021270752,0.9510966539382935
1715114116762028000,9.111028076171875,3.9588124752044678,3.778050184249878,0.9463081955909729
1715114116771978000,9.12097802734375,4.035427093505859,4.170699596405029,0.8313865661621094
1715114116781928000,9.130927978515626,4.212597846984863,4.707000732421875,0.8409633636474609
1715114116791878100,9.140878173828124,4.428076267242432,5.17626428604126,1.0372878313064575
1715114116801828000,9.150828125,4.720168590545654,5.583278179168701,1.2192472219467163
1715114116811778000,9.160778076171875,5.079298973083496,5.875370979309082,1.2671312093734741
1715114116821728000,9.17072802734375,5.720944881439209,6.110002517700195,1.3150153160095215
1715114116831678000,9.180677978515625,7.066486358642578,6.138733386993408,1.5065513849258423
1715114116841628200,9.190628173828125,9.149441719055176,5.971138954162598,1.975814938545227
1715114116851578000,9.200578125,11.309011459350586,5.8657941818237305,2.583942174911499
1715114116861528000,9.210528076171874,12.989741325378418,5.8657941818237305,3.0436289310455322
1715114116871478000,9.22047802734375,14.158111572265625,5.813121795654297,3.201646327972412
1715114116881428000,9.230427978515625,15.015235900878906,5.616796970367432,2.785055160522461
1715114116891378200,9.240378173828125,15.264232635498047,5.377377033233643,1.8225860595703125
1715114116901328100,9.250328125,14.57949161529541,5.339069843292236,0.7547720670700073
1715114116911278000,9.260278076171875,12.946645736694336,5.544970989227295,0.16579847037792206
1715114116921228000,9.27022802734375,11.2467622756958,5.995080947875977,-0.04010287672281265
1715114116931178000,9.280177978515624,9.800664901733398,6.48828649520874,-0.17896658182144165
1715114116941128000,9.2901279296875,8.694543838500977,6.900089263916016,-0.1885433793067932
1715114116951078000,9.300077880859375,8.359354972839355,7.12035608291626,-0.016160860657691956
1715114116961027800,9.31002783203125,8.991424560546875,6.947973251342773,0.060453593730926514
1715114116970977800,9.319977783203125,10.437521934509277,6.402095317840576,-0.025737667456269264
1715114116980927700,9.329927734375,11.850101470947266,5.635950565338135,-0.284311443567276
1715114116990877700,9.339877685546876,12.463016510009766,4.994304656982422,-0.7200561761856079
1715114117000827600,9.34982763671875,12.108675003051758,4.577713489532471,-1.0696096420288086
1715114117010777600,9.359777587890624,11.280281066894531,4.256890773773193,-1.184531331062317
1715114117020727600,9.3697275390625,10.56680965423584,3.9647979736328125,-1.026513934135437
1715114117030677500,9.379677490234375,10.293869972229004,3.8738183975219727,-0.595557689666748
1715114117040627500,9.38962744140625,10.720038414001465,3.892971992492676,0.21368250250816345
1715114117050577400,9.399577392578125,11.510124206542969,3.8594532012939453,0.9941922426223755
1715114117060527400,9.40952734375,12.429497718811035,3.734954595565796,1.5640122890472412
1715114117070477300,9.419477294921874,12.970587730407715,3.5721490383148193,1.9375077486038208
1715114117080427300,9.42942724609375,12.707225799560547,3.4380736351013184,1.975814938545227
1715114117090377200,9.439377197265625,11.749545097351074,3.3279404640197754,1.8082208633422852
1715114117100327200,9.4493271484375,10.662577629089355,3.227383852005005,1.6023194789886475
1715114117110277000,9.459277099609375,9.676166534423828,3.1220390796661377,1.4107834100723267
1715114117120227000,9.46922705078125,8.723274230957031,2.978386878967285,1.1522095203399658
1715114117130177000,9.479177001953126,7.665036678314209,2.8395233154296875,0.7930793166160583
1715114117140127000,9.489126953125,6.645106792449951,2.719813108444214,0.4387374520301819
1715114117150077000,9.499076904296874,5.634753704071045,2.6192567348480225,0.18974047899246216
1715114117160027000,9.50902685546875,4.796782970428467,2.5905263423919678,0.08439560979604721
1715114117169976800,9.518976806640625,4.155137062072754,2.628833532333374,0.1562216579914093
1715114117179926800,9.5289267578125,3.561375141143799,2.7054479122161865,0.32381579279899597
1715114117189876700,9.538876708984375,2.9053637981414795,2.8634653091430664,0.37648820877075195
1715114117199826700,9.54882666015625,2.4025814533233643,3.1316158771514893,0.2998737692832947
1715114117209776600,9.558776611328126,2.273294448852539,3.3662476539611816,0.2232593148946762
1715114117219726600,9.5687265625,2.4887726306915283,3.5482068061828613,0.17058686912059784
1715114117229676500,9.578676513671875,2.675520420074463,3.8115692138671875,0.09876082092523575
1715114117239626500,9.58862646484375,2.5749640464782715,4.170699596405029,-0.06883329898118973
1715114117249576700,9.59857666015625,2.321178436279297,4.568136692047119,-0.2603694200515747
1715114117259526700,9.608526611328125,2.297236442565918,4.95120906829834,-0.29388827085494995
1715114117269476600,9.6184765625,2.4648306369781494,5.39174222946167,-0.06404489278793335
1715114117279426600,9.628426513671876,2.9293057918548584,5.9519853591918945,0.24241292476654053
1715114117289376500,9.63837646484375,3.8726212978363037,6.335057735443115,0.5249287486076355
1715114117299326700,9.64832666015625,5.2564697265625,6.497863292694092,0.8026561141014099
1715114117309276700,9.658276611328125,6.712144374847412,6.607996463775635,0.9846154451370239
1715114117319226600,9.6682265625,7.779958248138428,6.555324077606201,0.9463081955909729
1715114117329176600,9.678176513671875,8.483853340148926,6.411672115325928,0.3669114112854004
1715114117339126500,9.68812646484375,9.3026704788208,6.234501361846924,-0.5524620413780212
1715114117349076500,9.698076416015626,10.29865837097168,5.966350555419922,-1.4718354940414429
1715114117359026700,9.708026611328124,11.12226390838623,5.664681434631348,-2.3145945072174072
1715114117368976600,9.7179765625,11.653777122497559,5.463568210601807,-3.071162223815918
1715114117378926600,9.727926513671875,12.199654579162598,5.430049419403076,-3.4781765937805176
1715114117388876500,9.73787646484375,12.573150634765625,5.592854976654053,-3.4542346000671387
1715114117398826500,9.747826416015625,12.51090145111084,6.04775333404541,-3.2818520069122314
1715114117408776700,9.757776611328126,11.93629264831543,6.641515731811523,-3.052008628845215
1715114117418726700,9.7677265625,11.12226390838623,7.086836814880371,-2.850895643234253
1715114117428676600,9.777676513671874,10.33217716217041,7.469909191131592,-2.544437885284424
1715114117438626600,9.78762646484375,10.05923843383789,7.967903137207031,-1.9075802564620972
1715114117448576500,9.797576416015625,10.973823547363281,8.212111473083496,-0.8684966564178467
1715114117458526700,9.807526611328125,12.917915344238281,7.843404769897461,0.1322796493768692
1715114117468476700,9.8174765625,14.862007141113281,7.15387487411499,0.6973112225532532
1715114117478426600,9.827426513671876,15.944186210632324,6.3973069190979,0.702099621295929
1715114117488376600,9.83737646484375,15.661670684814453,5.626373767852783,0.14664486050605774
1715114117498326500,9.847326416015624,14.426261901855469,4.9368438720703125,-0.6290764808654785
1715114117508276500,9.8572763671875,12.774263381958008,4.477157115936279,-1.4287399053573608
1715114117518226700,9.867226806640625,11.275492668151855,4.2329487800598145,-2.0703859329223633
1715114117528176600,9.8771767578125,10.011354446411133,4.151545524597168,-2.257133722305298
1715114117538126600,9.887126708984376,9.096769332885742,4.242525577545166,-1.8166005611419678
1715114117548076500,9.89707666015625,8.814253807067871,4.443638324737549,-0.7631517648696899
1715114117558026500,9.907026611328124,9.154230117797852,4.654327869415283,0.6015431880950928
1715114117567976700,9.916976806640625,9.68574333190918,4.6734819412231445,1.7747019529342651
1715114117577926700,9.9269267578125,10.126276016235352,4.414907932281494,2.4690206050872803
1715114117587876600,9.936876708984375,10.447098731994629,3.974374771118164,2.5983073711395264
1715114117597826600,9.94682666015625,10.629058837890625,3.5194764137268066,2.4163479804992676
1715114117607776500,9.956776611328126,10.609905242919922,3.0406360626220703,2.095525026321411
1715114117617726700,9.966726806640626,10.313023567199707,2.6001031398773193,1.6071078777313232
1715114117627676700,9.9766767578125,9.633070945739746,2.2840683460235596,1.0133458375930786
1715114117637626600,9.986626708984375,8.493430137634277,2.1068975925445557,0.37648820877075195
1715114117647576600,9.99657666015625,7.1239471435546875,2.054224967956543,-0.2555810213088989
1715114117657526500,10.006526611328125,5.792770862579346,2.0590133666992188,-0.657806932926178
1715114117667476500,10.0164765625,4.734533786773682,2.054224967956543,-0.8637082576751709
1715114117677426700,10.0264267578125,3.9683892726898193,2.1116859912872314,-0.8972271084785461
1715114117687376600,10.036376708984376,3.4129345417022705,2.31758713722229,-0.7344213724136353
1715114117697326600,10.04632666015625,3.0346505641937256,2.63362193107605,-0.2555810213088989
1715114117707276500,10.056276611328125,2.84790301322937,2.9496564865112305,0.37648820877075195
1715114117717226500,10.0662265625,2.8335378170013428,3.3231520652770996,0.9127894043922424
1715114117727176700,10.0761767578125,2.9963433742523193,3.73016619682312,1.2384008169174194
1715114117737126700,10.086126708984375,3.163937568664551,4.165910720825195,1.4443022012710571
1715114117747076600,10.09607666015625,3.2597055435180664,4.592078685760498,1.6502034664154053
1715114117757026600,10.106026611328126,3.159149169921875,4.999093055725098,1.7268179655075073
1715114117766976500,10.1159765625,3.183091163635254,5.382165431976318,1.5209165811538696
1715114117776926700,10.1259267578125,3.5948939323425293,5.635950565338135,1.2527660131454468
1715114117786876700,10.135876708984375,4.222174644470215,5.74129581451416,0.8505401611328125
1715114117796826600,10.14582666015625,4.95001220703125,5.793968200683594,0.17058686912059784
1715114117806776600,10.155776611328125,5.874173641204834,5.827486991882324,-0.3274070918560028
1715114117816726500,10.1657265625,6.750451564788818,5.803544998168945,-0.38965633511543274
1715114117826676500,10.175676513671876,7.559691905975342,5.961562156677246,-0.08319851011037827
1715114117836626700,10.185626708984374,8.641871452331543,6.248866558074951,0.6685808300971985
1715114117846576600,10.19557666015625,9.872490882873535,6.402095317840576,1.449090600013733
1715114117856526600,10.205526611328125,10.81580638885498,6.392518520355225,1.6454150676727295
1715114117866476500,10.2154765625,11.610681533813477,6.311115741729736,1.2527660131454468
1715114117876426500,10.225426513671875,12.625823020935059,6.04775333404541,0.5105634927749634
1715114117886376700,10.235376708984376,13.621810913085938,5.770026206970215,-0.5045779943466187
1715114117896326700,10.24532666015625,13.904326438903809,5.640739440917969,-1.4766238927841187
1715114117906276600,10.255276611328124,13.219584465026855,5.664681434631348,-2.0464439392089844
1715114117916226600,10.2652265625,11.826159477233887,5.937620162963867,-2.099116325378418
1715114117926176500,10.275176513671875,10.56680965423584,6.411672115325928,-1.8166005611419678
1715114117936126700,10.285126708984375,9.84376049041748,6.871358871459961,-1.3186066150665283
1715114117946076700,10.29507666015625,9.68574333190918,7.1251444816589355,-0.595557689666748
1715114117956026600,10.305026611328126,10.17416000366211,7.182605266571045,0.03651157766580582
1715114117965976600,10.3149765625,11.438298225402832,6.856993675231934,0.5153518915176392
1715114117975926500,10.324926513671874,12.99931812286377,6.1530985832214355,0.5919663906097412
1715114117985876500,10.33487646484375,14.071920394897461,5.324704647064209,0.07960720360279083
1715114117995826700,10.34482666015625,13.985729217529297,4.496310710906982,-0.6338648796081543
1715114118005776600,10.354776611328125,12.97537612915039,3.864241600036621,-1.3138182163238525
1715114118015726600,10.3647265625,11.443086624145508,3.5242648124694824,-1.6250643730163574
1715114118025676500,10.374676513671876,9.996989250183105,3.557783842086792,-1.3186066150665283
1715114118035626500,10.38462646484375,9.431957244873047,3.8307228088378906,-0.41359832882881165
1715114118045576700,10.39457666015625,9.771934509277344,3.9695863723754883,0.884058952331543
1715114118055526700,10.404526611328125,10.245985984802246,4.041412353515625,2.0236990451812744
1715114118065476600,10.4144765625,10.394426345825195,4.050989151000977,2.6557681560516357
1715114118075426600,10.424426513671875,10.111910820007324,3.9264907836914062,2.8137855529785156
1715114118085376500,10.43437646484375,9.518148422241211,3.778050184249878,2.5935189723968506
1715114118095326700,10.44432666015625,8.842984199523926,3.667917013168335,2.3253684043884277
1715114118105276700,10.454276611328124,8.177395820617676,3.5242648124694824,2.1577742099761963
1715114118115226600,10.4642265625,7.559691905975342,3.4189200401306152,1.9470845460891724
1715114118125176600,10.474176513671875,6.908469200134277,3.3423056602478027,1.635838270187378
1715114118135126500,10.48412646484375,6.171054840087891,3.2752678394317627,1.1905168294906616
1715114118145076500,10.494076416015625,5.471948146820068,3.2082302570343018,0.7356184720993042
1715114118155026700,10.504026611328126,4.830301761627197,3.179499864578247,0.4291606545448303
1715114118164976600,10.5139765625,4.2078094482421875,3.19865345954895,0.2663549482822418
1715114118174926600,10.523926513671874,3.604470729827881,3.2417490482330322,0.16579847037792206
1715114118184876500,10.53387646484375,3.049015760421753,3.3423056602478027,0.14185644686222076
1715114118194826500,10.543826416015625,2.584540843963623,3.5482068061828613,0.17058686912059784
1715114118204776700,10.553776611328125,2.469619035720825,3.778050184249878,0.314238965511322
1715114118214726700,10.5637265625,2.713827610015869,4.060565948486328,0.47225627303123474
1715114118224676600,10.573676513671876,3.159149169921875,4.314351558685303,0.39564183354377747
1715114118234626600,10.58362646484375,3.623624324798584,4.5825018882751465,0.060453593730926514
1715114118244576500,10.593576416015624,4.246116638183594,4.917690277099609,-0.284311443567276
1715114118254526700,10.603526611328125,5.002684593200684,5.161899089813232,-0.6003460884094238
1715114118264476700,10.6134765625,5.87896203994751,5.319916248321533,-0.882861852645874
1715114118274426600,10.623426513671875,6.85100793838501,5.521028995513916,-1.026513934135437
1715114118284376600,10.63337646484375,7.808688640594482,5.746084213256836,-0.9690531492233276
1715114118294326500,10.643326416015626,8.866926193237305,5.937620162963867,-0.801459014415741
1715114118304276500,10.6532763671875,9.872490882873535,6.119579315185547,-0.5045779943466187
1715114118314226700,10.663226806640624,10.581174850463867,6.320692539215088,-0.19812019169330597
1715114118324176600,10.6731767578125,11.050437927246094,6.517016887664795,0.08918401598930359
1715114118334126600,10.683126708984375,11.30422306060791,6.6127848625183105,0.24241292476654053
1715114118344076500,10.69307666015625,11.342530250549316,6.6846113204956055,0.10354922711849213
1715114118354026500,10.703026611328125,11.385625839233398,6.722918510437012,-0.15502455830574036
1715114118363976400,10.7129765625,11.615469932556152,6.598419666290283,-0.557250440120697
1715114118373926400,10.722926513671876,12.180500984191895,6.3973069190979,-1.20368492603302
1715114118383876400,10.73287646484375,12.42470932006836,6.268020153045654,-1.9363106489181519
1715114118393826300,10.742826416015625,11.725603103637695,6.406883716583252,-2.5971102714538574
1715114118403776300,10.7527763671875,10.394426345825195,6.8809356689453125,-2.7694928646087646
1715114118413726200,10.762726318359375,9.431957244873047,7.340622425079346,-2.343324899673462
1715114118423676200,10.77267626953125,9.11113452911377,7.642292022705078,-1.5340847969055176
1715114118433626000,10.782626220703126,9.781511306762695,7.8098859786987305,-0.5428852438926697
1715114118443576000,10.792576171875,11.514912605285645,7.608773231506348,0.44831427931785583
1715114118453526000,10.802526123046874,13.420697212219238,7.067683219909668,1.1665748357772827
1715114118463476000,10.81247607421875,14.411896705627441,6.3973069190979,1.30543851852417
1715114118473426000,10.822426025390625,13.765462875366211,5.640739440917969,0.8361749649047852
1715114118483375900,10.8323759765625,12.132616996765137,5.003881454467773,-0.2124854028224945
1715114118493325800,10.842325927734375,10.250774383544922,4.60165548324585,-1.5197194814682007
1715114118503275800,10.85227587890625,8.608352661132812,4.477157115936279,-2.807800054550171
1715114118513225700,10.862225830078126,7.535749912261963,4.577713489532471,-3.597886562347412
1715114118523175700,10.87217578125,7.253233909606934,4.764461517333984,-3.4398694038391113
1715114118533125600,10.882125732421875,7.7847466468811035,4.960785865783691,-2.477400302886963
1715114118543075300,10.892075439453125,8.637083053588867,4.970362663269043,-1.1653777360916138
1715114118553025300,10.902025390625,9.388861656188965,4.836287498474121,-0.025737667456269264
1715114118562975200,10.911975341796875,9.906009674072266,4.548983097076416,0.8888474106788635
1715114118572925200,10.92192529296875,10.279504776000977,4.194641590118408,1.4634557962417603
1715114118582875100,10.931875244140626,10.42315673828125,3.8307228088378906,1.7507599592208862
1715114118592825000,10.9418251953125,10.231620788574219,3.4811692237854004,1.7603367567062378
1715114118602775000,10.951775146484374,9.805453300476074,3.1507694721221924,1.5400702953338623
1715114118612725000,10.96172509765625,9.249998092651367,2.9065608978271484,1.2527660131454468
1715114118622675000,10.971675048828125,8.74721622467041,2.7437551021575928,0.9463081955909729
1715114118632625000,10.981625,8.292317390441895,2.537853717803955,0.6063315868377686
1715114118642574800,10.991574951171875,7.497442722320557,2.3558945655822754,0.25677812099456787
1715114118652524800,11.00152490234375,6.295553207397461,2.3032219409942627,-0.14065934717655182
1715114118662474800,11.011474853515624,5.112817764282227,2.3319525718688965,-0.3321954905986786
1715114118672424700,11.0214248046875,4.126406669616699,2.3798365592956543,-0.26994624733924866
1715114118682374700,11.031374755859375,3.4320881366729736,2.5761611461639404,-0.06883329898118973
1715114118692324600,11.04132470703125,3.09689998626709,2.9257144927978516,0.2902969419956207
1715114118702274600,11.051274658203125,2.958036184310913,3.35667085647583,0.6590040326118469
1715114118712224500,11.061224609375,2.9724013805389404,3.778050184249878,0.8457517623901367
1715114118722174500,11.071174560546876,3.2166099548339844,4.10366153717041,0.8888474106788635
1715114118732124700,11.081124755859374,3.5039141178131104,4.405331134796143,0.778714120388031
1715114118742074600,11.09107470703125,3.75291109085083,4.8267107009887695,0.6063315868377686
1715114118752024600,11.101024658203125,4.006696701049805,5.233725070953369,0.35733461380004883
1715114118761974500,11.110974609375,4.389768600463867,5.588066577911377,0.07003039866685867
1715114118771924500,11.120924560546875,4.863820552825928,5.95677375793457,-0.17417816817760468
1715114118781874700,11.130874755859375,5.414487361907959,6.282385349273682,-0.4040215313434601
1715114118791824600,11.14082470703125,6.2620344161987305,6.54574728012085,-0.43754035234451294
1715114118801774600,11.150774658203124,7.147889137268066,6.751648902893066,-0.284311443567276
1715114118811724500,11.160724609375,7.751227855682373,6.952761650085449,-0.15023615956306458
1715114118821674500,11.170674560546875,8.08162784576416,7.105990409851074,-0.020949264988303185
1715114118831624400,11.18062451171875,8.47906494140625,7.1921820640563965,0.35733461380004883
1715114118841574700,11.19057470703125,9.50857162475586,7.1490864753723145,0.9846154451370239
1715114118851524600,11.200524658203125,10.99776554107666,6.89530086517334,1.4538789987564087
1715114118861474600,11.210474609375,12.463016510009766,6.574477672576904,1.3389573097229004
1715114118871424500,11.220424560546874,13.645752906799316,6.3733649253845215,0.6925228238105774
1715114118881374500,11.23037451171875,14.024036407470703,6.138733386993408,-0.13108254969120026
1715114118891324700,11.24032470703125,13.099874496459961,6.01423454284668,-0.9068039059638977
1715114118901274600,11.250274658203125,11.347318649291992,6.167463779449463,-1.1749545335769653
1715114118911224600,11.260224609375,9.862914085388184,6.421248912811279,-0.9498994946479797
1715114118921174500,11.270174560546875,9.02015495300293,6.574477672576904,-0.6003460884094238
1715114118931124500,11.28012451171875,8.819042205810547,6.574477672576904,-0.2555810213088989
1715114118941074700,11.29007470703125,9.398438453674316,6.301538944244385,-0.07841010391712189
1715114118951024600,11.300024658203125,10.447098731994629,5.669469833374023,-0.2890998423099518
1715114118960974600,11.309974609375,11.505335807800293,4.908113479614258,-0.6003460884094238
1715114118970924500,11.319924560546875,12.032060623168945,4.304774761199951,-0.8732850551605225
1715114118980874500,11.32987451171875,11.854889869689941,3.9695863723754883,-1.1318588256835938
1715114118990824400,11.339824462890626,11.045649528503418,3.711012601852417,-1.1127052307128906
1715114119000774700,11.349774658203126,10.011354446411133,3.6583402156829834,-0.7775170207023621
1715114119010724600,11.359724609375,9.604340553283691,3.7828385829925537,-0.0736217051744461
1715114119020674600,11.369674560546875,9.77672290802002,3.9456443786621094,0.9080010056495667
1715114119030624500,11.37962451171875,10.36569595336914,4.017470359802246,1.7411831617355347
1715114119040574500,11.389574462890625,10.921151161193848,3.8498764038085938,2.229600429534912
1715114119050524700,11.399524658203125,10.959458351135254,3.667917013168335,2.2248120307922363
1715114119060474600,11.409474609375,10.528501510620117,3.5960910320281982,1.999756932258606
1715114119070424600,11.419424560546876,9.862914085388184,3.5194764137268066,1.7986440658569336
1715114119080374500,11.42937451171875,9.125499725341797,3.4380736351013184,1.5400702953338623
1715114119090324500,11.439324462890625,8.531737327575684,3.380612850189209,1.2192472219467163
1715114119100274700,11.449274658203125,8.08162784576416,3.313575267791748,0.9271546006202698
1715114119110224600,11.459224609375,7.636306285858154,3.246537446975708,0.6973112225532532
1715114119120174600,11.469174560546875,7.056909561157227,3.2321722507476807,0.5201402902603149
1715114119130124500,11.47912451171875,6.434417247772217,3.270479440689087,0.44831427931785583
1715114119140074500,11.489074462890626,5.7975592613220215,3.332728862762451,0.5728127360343933
1715114119150024400,11.4990244140625,5.141548156738281,3.442862033843994,0.7835025191307068
1715114119159974700,11.508974609375,4.351461410522461,3.576937437057495,0.9702502489089966
1715114119169924600,11.518924560546875,3.556586742401123,3.754108190536499,1.0420763492584229
1715114119179874600,11.52887451171875,2.9915549755096436,4.017470359802246,1.0564415454864502
1715114119189824500,11.538824462890625,2.7234044075012207,4.252102375030518,0.9798270463943481
1715114119199774500,11.5487744140625,2.608482837677002,4.548983097076416,0.7978677153587341
1715114119209724700,11.558724609375,2.7281928062438965,4.95120906829834,0.5680243372917175
1715114119219674600,11.568674560546874,3.1735143661499023,5.281609058380127,0.4387374520301819
1715114119229624600,11.57862451171875,3.8774096965789795,5.468356609344482,0.30945056676864624
1715114119239574500,11.588574462890625,4.63397741317749,5.659893035888672,0.19452889263629913
1715114119249524500,11.5985244140625,5.438429355621338,5.827486991882324,0.041299980133771896
1715114119259474400,11.608474365234375,6.563704013824463,5.8657941818237305,0.002992752008140087
1715114119269424400,11.61842431640625,8.067262649536133,5.832275390625,0.0077811554074287415
1715114119279374300,11.628374267578126,9.618705749511719,5.813121795654297,-0.020949264988303185
1715114119289324300,11.63832421875,10.758345603942871,5.899312973022461,0.0077811554074287415
1715114119299274200,11.648274169921875,11.433509826660156,6.071695327758789,0.11791443079710007
1715114119309224200,11.65822412109375,11.921927452087402,6.100425720214844,0.25677812099456787
1715114119319174100,11.668174072265625,12.166135787963867,5.999869346618652,-0.0017956512747332454
1715114119329124000,11.6781240234375,12.228384971618652,5.92325496673584,-0.6913257241249084
1715114119339074000,11.688073974609376,12.09430980682373,5.779603004455566,-1.3329718112945557
1715114119349024000,11.69802392578125,11.744756698608398,5.7556610107421875,-1.567603588104248
1715114119358974000,11.707973876953124,11.342530250549316,5.841852188110352,-1.4383167028427124
1715114119368924000,11.717923828125,10.992977142333984,5.966350555419922,-1.3329718112945557
1715114119378873900,11.727873779296875,10.461463928222656,6.167463779449463,-1.4622586965560913
1715114119388823800,11.73782373046875,9.733627319335938,6.550535678863525,-1.7974469661712646
1715114119398773800,11.747773681640625,8.862137794494629,7.048529624938965,-1.998559832572937
1715114119408723700,11.7577236328125,8.292317390441895,7.359776020050049,-1.8692729473114014
1715114119418673700,11.767673583984376,8.440757751464844,7.441178798675537,-1.2850877046585083
1715114119428623600,11.77762353515625,9.436745643615723,7.469909191131592,-0.3705027103424072
1715114119438573600,11.787573486328125,11.012130737304688,7.326257228851318,0.6254851818084717
1715114119448523500,11.7975234375,12.81735897064209,6.813898086547852,1.568800687789917
1715114119458473500,11.807473388671875,14.210783958435059,6.114790916442871,2.057217836380005
1715114119468423400,11.81742333984375,14.416685104370117,5.214571475982666,1.688510775566101
1715114119478373400,11.827373291015626,13.368024826049805,4.32871675491333,0.32381579279899597
1715114119488323300,11.8373232421875,11.677719116210938,3.7445313930511475,-1.3808557987213135
1715114119498273300,11.847273193359374,9.877279281616211,3.490746021270752,-2.764704465866089
1715114119508223200,11.85722314453125,8.44554615020752,3.533841609954834,-3.6553473472595215
1715114119518173200,11.867173095703125,7.621941089630127,3.73016619682312,-3.664924144744873
1715114119528123100,11.877123046875,7.5884222984313965,3.9456443786621094,-2.8652608394622803
1715114119538073000,11.887072998046875,8.378508567810059,4.089296340942383,-1.5867571830749512
1715114119548023000,11.89702294921875,9.498994827270508,4.022258758544922,-0.3513490855693817
1715114119557973000,11.906972900390626,10.466252326965332,3.7445313930511475,0.35254621505737305
1715114119567923000,11.9169228515625,10.988188743591309,3.3710360527038574,0.5871779918670654
1715114119577873000,11.926872802734374,10.969035148620605,3.0550012588500977,0.46746787428855896
1715114119587822800,11.93682275390625,10.528501510620117,2.8347349166870117,0.17058686912059784
1715114119597772800,11.946772705078125,9.700108528137207,2.6815059185028076,-0.08798690885305405
1715114119607722800,11.95672265625,8.670601844787598,2.6862943172454834,-0.26994624733924866
1715114119617672700,11.966672607421875,7.818265438079834,2.782062292098999,-0.3561375141143799
1715114119627622700,11.97662255859375,7.29154109954834,2.734178304672241,-0.38965633511543274
1715114119637572600,11.986572509765624,6.7935471534729,2.609679937362671,-0.47584760189056396
1715114119647522600,11.9965224609375,6.147112846374512,2.5522189140319824,-0.6099228858947754
1715114119657472500,12.006472412109375,5.419275760650635,2.561795711517334,-0.595557689666748
1715114119667422500,12.01642236328125,4.705803394317627,2.557007312774658,-0.46148237586021423
1715114119677372400,12.026372314453125,4.006696701049805,2.6671407222747803,-0.2890998423099518
1715114119687322400,12.036322265625,3.4560301303863525,2.9544448852539062,-0.11671733111143112
1715114119697272300,12.046272216796876,3.0107085704803467,3.270479440689087,-0.0065840547904372215
1715114119707222300,12.05622216796875,2.756923198699951,3.6391866207122803,-0.04489128291606903
1715114119717172200,12.066172119140624,2.6898856163024902,4.089296340942383,-0.020949264988303185
1715114119727122200,12.0761220703125,2.7904419898986816,4.60165548324585,0.06524199992418289
1715114119737072000,12.086072021484375,3.1495723724365234,5.094861030578613,0.11791443079710007
1715114119747022000,12.09602197265625,3.6571431159973145,5.535394191741943,0.06524199992418289
1715114119756972000,12.105971923828125,4.236539840698242,5.822698593139648,-0.15023615956306458
1715114119766922000,12.115921875,4.734533786773682,5.875370979309082,-0.5620388388633728
1715114119776872000,12.125871826171876,5.213374137878418,6.052541732788086,-0.921169102191925
1715114119786821600,12.135821533203124,6.113594055175781,6.378153324127197,-0.8349778652191162
1715114119796771600,12.145771484375,7.5453267097473145,6.627150535583496,-0.40880993008613586
1715114119806721500,12.155721435546875,9.403226852416992,6.799532890319824,0.2759317457675934
1715114119816671500,12.16567138671875,11.241973876953125,6.818686485290527,1.1617863178253174
1715114119826621400,12.175621337890625,12.525266647338867,6.627150535583496,1.5735890865325928
1715114119836571400,12.1855712890625,13.219584465026855,6.387730121612549,1.3581109046936035
1715114119846521300,12.195521240234376,13.506889343261719,6.01423454284668,0.9463081955909729
1715114119856471300,12.20547119140625,13.631387710571289,5.635950565338135,0.39564183354377747
1715114119866421200,12.215421142578125,13.798981666564941,5.295974254608154,-0.2124854028224945
1715114119876371200,12.22537109375,13.655329704284668,5.137956619262695,-0.839766263961792
1715114119886321200,12.235321044921875,12.755109786987305,5.305551052093506,-1.146224021911621
1715114119896271000,12.24527099609375,11.160571098327637,5.5545477867126465,-1.2132617235183716
1715114119906221300,12.25522119140625,9.479841232299805,5.717353820800781,-1.2132617235183716
1715114119916171300,12.265171142578126,8.143877029418945,5.942408561706543,-0.9068039059638977
1715114119926121200,12.275121337890624,7.4351935386657715,6.315904140472412,-0.1933317929506302
1715114119936071200,12.2850712890625,7.746439456939697,6.560112476348877,0.9175778031349182
1715114119946021000,12.295021240234375,8.953117370605469,6.449979305267334,2.0620062351226807
1715114119955971000,12.30497119140625,10.672154426574707,5.808333396911621,2.7084407806396484
1715114119965921300,12.31492138671875,12.146982192993164,4.941632270812988,2.7754783630371094
1715114119975871200,12.324871337890626,12.812570571899414,4.108449935913086,2.521692991256714
1715114119985821200,12.3348212890625,12.381613731384277,3.552995204925537,2.052429437637329
1715114119995771100,12.344771240234374,11.543643951416016,3.35667085647583,1.5544354915618896
1715114120005721000,12.35472119140625,10.954669952392578,3.3710360527038574,1.2623428106307983
1715114120015671300,12.36467138671875,10.99776554107666,3.620033025741577,1.1186907291412354
1715114120025621200,12.374621337890625,11.265915870666504,3.8498764038085938,1.1857284307479858
1715114120035571200,12.3845712890625,11.45266342163086,4.017470359802246,1.3389573097229004
1715114120045521200,12.394521240234376,11.490970611572266,4.055777549743652,1.2767080068588257
1715114120055471000,12.40447119140625,11.318588256835938,4.022258758544922,1.061229944229126
1715114120065421300,12.41442138671875,10.978611946105957,3.9025487899780273,0.8601169586181641
1715114120075371300,12.424371337890625,10.518924713134766,3.6583402156829834,0.6206967830657959
1715114120085321200,12.4343212890625,9.834183692932129,3.380612850189209,0.2472013235092163
1715114120095271200,12.444271240234375,8.981847763061523,3.3231520652770996,-0.03531447425484657
1715114120105221000,12.45422119140625,8.100781440734863,3.337517261505127,-0.17417816817760468
1715114120115171000,12.464171142578126,7.190984725952148,3.35667085647583,-0.26994624733924866
1715114120125121300,12.474121337890624,6.434417247772217,3.471592426300049,-0.23163901269435883
1715114120135071200,12.4840712890625,5.864596843719482,3.5865142345428467,0.046088382601737976
1715114120145021200,12.494021240234375,5.361814498901367,3.648763418197632,0.314238965511322
1715114120154971100,12.50397119140625,4.643554210662842,3.711012601852417,0.47225627303123474
1715114120164921000,12.513921142578125,3.671508312225342,3.778050184249878,0.5009866952896118
1715114120174871300,12.523871337890625,2.919728994369507,3.88818359375,0.4578910768032074
1715114120184821200,12.5338212890625,2.560598611831665,3.9839515686035156,0.44352585077285767
1715114120194771200,12.543771240234374,2.5797524452209473,4.2090067863464355,0.40043023228645325
1715114120204721200,12.55372119140625,2.876633405685425,4.395754337310791,0.4578910768032074
1715114120214671000,12.563671142578125,3.163937568664551,4.381389141082764,0.4578910768032074
1715114120224621300,12.573621337890625,3.3698389530181885,4.496310710906982,0.11312603205442429
1715114120234571300,12.5835712890625,3.7816414833068848,4.654327869415283,-0.2795230448246002
1715114120244521200,12.593521240234375,4.6722846031188965,4.620809078216553,-0.36092591285705566
1715114120254471200,12.60347119140625,5.725733280181885,4.630385875701904,-0.2555810213088989
1715114120264421000,12.613421142578124,6.525396823883057,4.711789131164551,-0.1646013706922531
1715114120274371000,12.62337109375,6.980295181274414,4.884171485900879,-0.1215057373046875
1715114120284321000,12.633321044921875,7.4351935386657715,5.147533416748047,-0.10714052617549896
1715114120294271000,12.64327099609375,8.04810905456543,5.420472621917725,-0.06883329898118973
1715114120304221000,12.653220947265625,8.641871452331543,5.784391403198242,0.15143325924873352
1715114120314171000,12.6631708984375,9.173383712768555,6.18182897567749,0.6015431880950928
1715114120324120800,12.673120849609376,9.580398559570312,6.4834980964660645,0.8649053573608398
1715114120334070800,12.68307080078125,9.84376049041748,6.675034523010254,0.6637924313545227
1715114120344020700,12.693020751953124,9.99220085144043,6.708553314208984,0.25677812099456787
1715114120353970700,12.702970703125,10.360907554626465,6.598419666290283,-0.08319851011037827
1715114120363920400,12.71292041015625,10.945093154907227,6.502651691436768,-0.2364274114370346
1715114120373870300,12.722870361328125,11.356895446777344,6.517016887664795,-0.47584760189056396
1715114120383820300,12.7328203125,11.23718547821045,6.742072105407715,-0.8876502513885498
1715114120393770200,12.742770263671876,10.614693641662598,7.082048416137695,-1.246780514717102
1715114120403720200,12.75272021484375,9.771934509277344,7.173028469085693,-1.270722508430481
1715114120413670100,12.762670166015624,9.374496459960938,7.101202011108398,-1.1318588256835938
1715114120423620000,12.7726201171875,9.714473724365234,7.067683219909668,-0.9403226971626282
1715114120433570000,12.782570068359375,10.576386451721191,6.885724067687988,-0.6817489266395569
1715114120443520000,12.79252001953125,11.33774185180664,6.555324077606201,-0.595557689666748
1715114120453470000,12.802469970703125,11.739968299865723,6.248866558074951,-0.7344213724136353
1715114120463420000,12.812419921875,12.065579414367676,5.932831764221191,-1.0313023328781128
1715114120473369900,12.822369873046876,12.328941345214844,5.4444146156311035,-1.4622586965560913
1715114120483319800,12.83231982421875,12.352883338928223,4.898536682128906,-2.0225019454956055
1715114120493269800,12.842269775390625,11.93629264831543,4.563348293304443,-2.472611904144287
1715114120503219700,12.8522197265625,11.285069465637207,4.448426723480225,-2.4678235054016113
1715114120513169700,12.862169677734375,10.547656059265137,4.477157115936279,-1.9075802564620972
1715114120523119600,12.87211962890625,9.906009674072266,4.534617900848389,-1.0456676483154297
1715114120533069600,12.882069580078126,9.41759204864502,4.477157115936279,-0.2172738015651703
1715114120543019500,12.89201953125,9.029731750488281,4.299986362457275,0.37648820877075195
1715114120552969500,12.901969482421874,8.723274230957031,4.046200752258301,0.6446388363838196
1715114120562919400,12.91191943359375,8.42160415649414,3.73016619682312,0.6111199855804443
1715114120572869400,12.921869384765625,8.254010200500488,3.399766445159912,0.3429693877696991
1715114120582819300,12.9318193359375,8.182184219360352,2.940079689025879,-0.04489128291606903
1715114120592769300,12.941769287109375,7.904457092285156,2.5761611461639404,-0.5045779943466187
1715114120602719200,12.95171923828125,7.6075758934021,2.4372973442077637,-0.8876502513885498
1715114120612669200,12.961669189453126,7.396886348724365,2.293645143508911,-1.0935516357421875
