time,seconds_elapsed,z,y,x
1715114148572126000,0.1531259765625,2.6102185249328613,1.3133106231689453,0.612673819065094
1715114148582076000,0.163075927734375,3.397796154022217,1.2677028179168701,0.7470650672912598
1715114148592025600,0.173025634765625,4.71113395690918,1.0879850387573242,1.19390869140625
1715114148601975600,0.1829755859375,4.650359630584717,1.1087536811828613,1.554688572883606
1715114148611925500,0.192925537109375,4.180240154266357,1.1553165912628174,1.3926222324371338
1715114148621875500,0.20287548828125,3.145388603210449,1.1391398906707764,0.875790536403656
1715114148631825400,0.212825439453125,2.9364213943481445,1.196242332458496,0.40023261308670044
1715114148641775000,0.222775146484375,3.092027187347412,1.170280933380127,0.5561614632606506
1715114148651725000,0.23272509765625,3.8064470291137695,0.7704226970672607,0.11574333906173706
1715114148661675000,0.242675048828125,3.6513853073120117,0.7099010944366455,0.233986496925354
1715114148671625000,0.252625,3.5733580589294434,1.8540120124816895,0.8852090835571289
1715114148681574700,0.26257470703125,4.313865661621094,1.951974630355835,1.4598743915557861
1715114148691524600,0.272524658203125,4.602865219116211,1.1475796699523926,1.3625493049621582
1715114148701474600,0.282474609375,4.118334770202637,0.28101205825805664,0.4944620132446289
1715114148711424500,0.292424560546875,3.467103958129883,-0.23465514183044434,-0.2599087953567505
1715114148721374500,0.30237451171875,4.290745735168457,-0.7107185125350952,-0.22019946575164795
1715114148731324200,0.31232421875,4.607037544250488,-0.7605152130126953,0.019313931465148926
1715114148741274000,0.322274169921875,5.0164337158203125,-0.34239232540130615,0.3565988540649414
1715114148751224000,0.33222412109375,4.245750427246094,-0.554132342338562,0.7593588829040527
1715114148761174000,0.342174072265625,2.6906328201293945,-0.6655676364898682,0.8769484758377075
1715114148771124000,0.3521240234375,0.920313835144043,-0.7973016500473022,0.77342689037323
1715114148781073700,0.36207373046875,-0.8024616241455078,-0.9035143852233887,0.2800123691558838
1715114148791023600,0.372023681640625,-0.4264850616455078,-1.2412350177764893,-0.7854049205780029
1715114148800973600,0.3819736328125,1.4830617904663086,-2.139303207397461,-1.3556196689605713
1715114148810923500,0.391923583984375,3.7967700958251953,-2.8800344467163086,-1.2860462665557861
1715114148820873200,0.401873291015625,5.590473175048828,-3.6196560859680176,-1.7294971942901611
1715114148830823200,0.4118232421875,5.6811370849609375,-4.106204509735107,-2.0899527072906494
1715114148840773000,0.421773193359375,4.971792221069336,-3.5877389907836914,-1.9415864944458008
1715114148850723000,0.43172314453125,4.530867576599121,-2.940816640853882,-1.3902294635772705
1715114148860673000,0.441673095703125,4.359374046325684,-2.5297136306762695,-0.9130092263221741
1715114148870622700,0.451622802734375,4.594222068786621,-2.478095531463623,-1.075487494468689
1715114148880572700,0.46157275390625,4.262480735778809,-2.462702751159668,-1.0138980150222778
1715114148890522600,0.471522705078125,2.5598764419555664,-2.335768938064575,-0.9657418727874756
1715114148900472600,0.48147265625,1.0788326263427734,-1.7847191095352173,-1.1383579969406128
1715114148910422300,0.49142236328125,0.9833078384399414,-1.4975656270980835,-1.137457013130188
1715114148920372200,0.501372314453125,1.1768360137939453,-1.4602314233779907,-1.1118196249008179
1715114148930322200,0.511322265625,1.1007766723632812,-1.144967794418335,-1.1699694395065308
1715114148940272000,0.521272216796875,0.7566204071044922,-0.8129159212112427,-1.0733312368392944
1715114148950222000,0.53122216796875,-0.1723766326904297,-0.5752135515213013,-1.0268933773040771
1715114148960171800,0.541171875,-1.4619989395141602,-0.5082340240478516,-1.3773082494735718
1715114148970121700,0.551121826171875,-2.8607592582702637,-0.5908616781234741,-1.7711856365203857
1715114148980071700,0.56107177734375,-4.003933429718018,-0.2446383535861969,-1.4609397649765015
1715114148990021600,0.571021728515625,-3.995007038116455,0.4156237244606018,-0.17686700820922852
1715114148999971300,0.580971435546875,-4.031058311462402,0.737692654132843,1.1069812774658203
1715114149009921300,0.59092138671875,-4.310079574584961,0.5852804183959961,1.1983877420425415
1715114149019871200,0.600871337890625,-4.350316524505615,0.3702644109725952,0.9787070751190186
1715114149029821200,0.6108212890625,-3.528552532196045,0.11247442662715912,0.12442922592163086
1715114149039771100,0.620771240234375,-3.0829668045043945,0.2604169249534607,-1.259864091873169
1715114149049720800,0.630720947265625,-3.174710750579834,0.4457859694957733,-1.5289212465286255
1715114149059670800,0.6406708984375,-3.6216135025024414,0.5414099097251892,-0.952500581741333
1715114149069620700,0.650620849609375,-3.798600196838379,0.7658515572547913,-0.6020603179931641
1715114149079570700,0.66057080078125,-3.3102917671203613,1.0743452310562134,-0.22845172882080078
1715114149089520400,0.670520263671875,-3.055838108062744,1.6273813247680664,1.0516633987426758
1715114149099470300,0.68047021484375,-2.3069472312927246,2.1210198402404785,2.4300990104675293
1715114149109420300,0.690420166015625,-1.4489965438842773,2.3116235733032227,3.3258557319641113
1715114149119370200,0.700370361328125,-0.877197265625,2.047105312347412,3.049668550491333
1715114149129320200,0.7103203125,0.17992019653320312,1.6770490407943726,0.641831636428833
1715114149139270000,0.720269775390625,0.30152416229248047,1.1433221101760864,-0.8942704200744629
1715114149149219800,0.7302197265625,0.32372188568115234,0.38155174255371094,-1.0763520002365112
1715114149159169800,0.740169677734375,0.5472345352172852,0.055478453636169434,-1.2031646966934204
1715114149169119700,0.75011962890625,0.5446529388427734,-0.0823068618774414,-1.3955669403076172
1715114149179069700,0.760069580078125,1.0810136795043945,-0.13847842812538147,-1.1435145139694214
1715114149189019400,0.770019287109375,1.1807794570922852,-0.12814852595329285,-0.36786770820617676
1715114149198969300,0.77996923828125,1.9310741424560547,-0.004307672381401062,0.4344770908355713
1715114149208919300,0.789919189453125,2.20827579498291,0.6797789335250854,1.2899532318115234
1715114149218869200,0.799869140625,2.618563652038574,1.2200369834899902,2.2730722427368164
1715114149228819000,0.80981884765625,2.6915855407714844,1.217152714729309,2.7779104709625244
1715114149238769000,0.819768798828125,1.9712486267089844,1.1382042169570923,2.530460834503174
1715114149248718800,0.82971875,0.7844038009643555,0.5663443803787231,2.0321497917175293
1715114149258668800,0.839668701171875,0.6974086761474609,0.04367006570100784,1.4005913734436035
1715114149268618800,0.84961865234375,1.9722356796264648,0.022423377260565758,0.6223030090332031
1715114149278568400,0.859568359375,3.98748779296875,-0.3001082241535187,-0.2321486473083496
1715114149288518400,0.869518310546875,5.400092124938965,-0.8592821359634399,-1.359496831893921
1715114149298468400,0.87946826171875,5.496699333190918,-1.2038474082946777,-2.487063407897949
1715114149308418300,0.889418212890625,4.588666915893555,-1.3606935739517212,-3.3513455390930176
1715114149318368000,0.899367919921875,3.6134891510009766,-1.4203944206237793,-3.407601833343506
1715114149328318000,0.90931787109375,2.8886775970458984,-1.222266435623169,-2.3123419284820557
1715114149338268000,0.919267822265625,2.420412063598633,-0.2807657718658447,-0.049086570739746094
1715114149348217900,0.9292177734375,3.171187400817871,0.35725581645965576,2.7127232551574707
1715114149358167800,0.939167724609375,4.504072189331055,0.8060817718505859,3.990461826324463
1715114149368117500,0.949117431640625,4.315580368041992,1.3260493278503418,3.896702289581299
1715114149378067500,0.9590673828125,2.449422836303711,1.094594120979309,3.236696720123291
1715114149388017400,0.969017333984375,0.9980640411376953,0.400135338306427,2.1061906814575195
1715114149397967400,0.97896728515625,0.6664695739746094,0.1788838803768158,0.8667511940002441
1715114149407917300,0.988917236328125,0.3533344268798828,0.29343467950820923,0.21543025970458984
1715114149417867300,0.9988671875,-0.23009204864501953,0.4267370104789734,-0.33777761459350586
1715114149427817200,1.008817138671875,0.3209218978881836,0.5488373637199402,-0.09805679321289062
1715114149437767200,1.01876708984375,1.7269372940063477,0.9199050068855286,0.8920416831970215
1715114149447717000,1.028717041015625,1.4419403076171875,1.6534771919250488,1.3382673263549805
1715114149457667000,1.0386669921875,0.1384725570678711,1.919110655784607,1.5699777603149414
1715114149467617000,1.048616943359375,-0.5759744644165039,2.1673738956451416,1.3311948776245117
1715114149477567000,1.05856689453125,-1.4867992401123047,2.3713817596435547,0.8127651214599609
1715114149487517000,1.068516845703125,-0.912142276763916,2.8798813819885254,2.3258557319641113
1715114149497467000,1.078466796875,-2.1404733657836914,0.6884975433349609,-1.2121028900146484
1715114149507416800,1.088416748046875,-4.145974159240723,-0.40990084409713745,-5.01708984375
1715114149517366800,1.09836669921875,-7.317450046539307,0.5214235186576843,-5.1313581466674805
1715114149527316700,1.108316650390625,-11.724757194519043,0.07226020097732544,-5.594631671905518
1715114149537266700,1.1182666015625,-11.299251556396484,-0.48765143752098083,-5.488073825836182
1715114149547216600,1.128216552734375,-7.6207780838012695,-0.07226714491844177,-4.35798454284668
1715114149557166600,1.13816650390625,-3.1877174377441406,0.18521296977996826,-3.823063373565674
1715114149567116500,1.148116455078125,0.49231624603271484,0.36771059036254883,-4.000650405883789
1715114149577066500,1.15806640625,-0.358736515045166,0.7483566999435425,-2.903181791305542
1715114149587016400,1.168016357421875,-2.5495591163635254,2.5979862213134766,-0.5154919624328613
1715114149596966400,1.17796630859375,-4.066410064697266,2.545988082885742,1.1803655624389648
1715114149606916400,1.187916259765625,-3.9035022258758545,1.7295833826065063,1.9259333610534668
1715114149616866300,1.1978662109375,-2.902374267578125,1.5620237588882446,0.9947333335876465
1715114149626816300,1.207816162109375,-3.9778311252593994,1.1178293228149414,-0.42574644088745117
1715114149636766200,1.21776611328125,-2.325505256652832,1.168949007987976,-0.01772022247314453
1715114149646716200,1.227716064453125,0.4735245704650879,1.432695984840393,1.1777353286743164
1715114149656666000,1.237666015625,1.5864167213439941,0.7667227983474731,2.298149585723877
1715114149666616000,1.247615966796875,1.5157499313354492,1.0234434604644775,0.8983182907104492
1715114149676566000,1.25756591796875,-2.1217966079711914,1.3601056337356567,-0.6443047523498535
1715114149686516000,1.267515869140625,-3.6255407333374023,1.564542531967163,1.1451539993286133
1715114149696466000,1.2774658203125,-1.5000452995300293,1.9826728105545044,4.993929386138916
1715114149706415900,1.287415771484375,1.536081314086914,1.4304296970367432,8.830484390258789
1715114149716365800,1.29736572265625,2.6563796997070312,1.9057726860046387,4.7140583992004395
1715114149726315800,1.307315673828125,3.067126750946045,1.0794597864151,-2.3604447841644287
1715114149736265700,1.317265625,3.5194015502929688,0.5487507581710815,-2.945789337158203
1715114149746215700,1.327215576171875,3.059600830078125,0.2680233120918274,1.4496641159057617
1715114149756165400,1.337165283203125,0.4272041320800781,1.7855561971664429,3.4729537963867188
1715114149766115300,1.347115234375,-0.4644174575805664,1.7763302326202393,3.9679055213928223
1715114149776065300,1.357065185546875,1.0917186737060547,1.1804568767547607,3.080260753631592
1715114149786015200,1.36701513671875,3.695505142211914,0.5864263772964478,2.814955234527588
1715114149795965000,1.37696484375,7.095816612243652,-0.20369073748588562,2.2851920127868652
1715114149805915000,1.386914794921875,7.683942794799805,-0.7399687767028809,1.8709659576416016
1715114149815864800,1.39686474609375,6.207995414733887,-0.8967357873916626,1.527562141418457
1715114149825814800,1.406814697265625,3.9599790573120117,-0.8211498856544495,0.5033988952636719
1715114149835764700,1.4167646484375,2.8945369720458984,-1.2942909002304077,-0.7265257835388184
1715114149845714400,1.42671435546875,2.8750429153442383,-2.0080575942993164,-1.463188648223877
1715114149855664400,1.436664306640625,3.674346923828125,-1.8605988025665283,-2.5334904193878174
1715114149865614300,1.4466142578125,-1.1825861930847168,-2.6279044151306152,-3.720329761505127
1715114149875564300,1.456564208984375,-3.411095142364502,-1.9978716373443604,-2.5820910930633545
1715114149885514000,1.466513916015625,-3.0573787689208984,-1.7326995134353638,-0.9388031959533691
1715114149895464000,1.4764638671875,-1.7794265747070312,-1.739916205406189,0.4589266777038574
1715114149905414000,1.486413818359375,-0.35335731506347656,-2.0559442043304443,0.4126396179199219
1715114149915363800,1.49636376953125,-0.07929325103759766,-1.885793685913086,0.11176395416259766
1715114149925313800,1.506313720703125,-0.5817995071411133,-1.7487435340881348,0.11098003387451172
1715114149935263500,1.516263427734375,-0.7558736801147461,-1.846247911453247,-0.6448140144348145
1715114149945213400,1.52621337890625,1.5111026763916016,-1.9846857786178589,-0.7746090888977051
1715114149955163400,1.536163330078125,3.5510120391845703,-2.229365825653076,-1.6086206436157227
1715114149965113300,1.54611328125,3.284520149230957,-2.583029270172119,-3.487285614013672
1715114149975063000,1.55606298828125,2.798647880554199,-2.9228155612945557,-4.189538478851318
1715114149985013000,1.566012939453125,2.0488834381103516,-2.8384804725646973,-4.506949424743652
1715114149994963000,1.575962890625,-0.06517219543457031,-1.9807298183441162,-3.632946014404297
1715114150004913000,1.585912841796875,-3.135262966156006,-1.5049424171447754,-2.9855399131774902
1715114150014862800,1.59586279296875,-5.514544486999512,-0.9457289576530457,-2.479396343231201
1715114150024812500,1.6058125,-5.419461250305176,-0.1815476268529892,-1.716567039489746
1715114150034762500,1.615762451171875,-3.6983675956726074,0.16208457946777344,-1.1742806434631348
1715114150044712400,1.62571240234375,-2.2994604110717773,0.625368595123291,-0.2864062786102295
1715114150054662400,1.635662353515625,-2.661402702331543,0.27787089347839355,-0.9531269073486328
1715114150064612400,1.6456123046875,-2.3709611892700195,0.2412455826997757,-1.3045687675476074
1715114150074562000,1.65556201171875,-1.4094839096069336,0.1527729034423828,-0.988386869430542
1715114150084512000,1.665511962890625,-0.8747072219848633,0.016256868839263916,-1.658919334411621
1715114150094462000,1.6754619140625,-0.79217529296875,-0.2504379153251648,-1.9368940591812134
1715114150104412000,1.685411865234375,-2.377931594848633,-0.12349140644073486,-2.2098891735076904
1715114150114361600,1.695361572265625,-3.469636917114258,0.2182452380657196,-1.5964990854263306
1715114150124311600,1.7053115234375,-2.214456081390381,0.32754456996917725,-0.7355349063873291
1715114150134261500,1.715261474609375,-2.071932315826416,0.7593300938606262,0.013143301010131836
1715114150144211500,1.72521142578125,-3.247763156890869,1.044788122177124,0.1933591365814209
1715114150154161400,1.735161376953125,-3.39174747467041,1.1267762184143066,0.8145046234130859
1715114150164111000,1.745111083984375,-2.8044514656066895,1.7731130123138428,2.377190589904785
1715114150174061000,1.75506103515625,-3.7269492149353027,2.0490407943725586,2.9227309226989746
1715114150184011000,1.765010986328125,-2.44650936126709,1.8454997539520264,2.706897020339966
1715114150193961000,1.7749609375,0.6381692886352539,2.5340771675109863,3.282618522644043
1715114150203910700,1.78491064453125,0.6361827850341797,2.9318346977233887,2.5707597732543945
1715114150213860600,1.794860595703125,-0.028158187866210938,2.9445719718933105,2.0413057804107666
1715114150223810600,1.804810546875,1.8375892639160156,2.16652774810791,2.354135513305664
1715114150233760500,1.814760498046875,4.650634765625,-0.10098028182983398,0.024161338806152344
1715114150243710500,1.82471044921875,7.210872650146484,-1.257757544517517,-0.06418037414550781
1715114150253660200,1.83466015625,8.662360191345215,-0.6781700849533081,0.6754665374755859
1715114150263610000,1.844610107421875,7.43543815612793,1.1894221305847168,4.6001434326171875
1715114150273560000,1.85456005859375,2.432415008544922,2.337602138519287,4.7162041664123535
1715114150283510000,1.864510009765625,0.20363140106201172,1.6963574886322021,4.623963356018066
1715114150293459700,1.874459716796875,1.2286415100097656,1.8392071723937988,5.249838352203369
1715114150303409700,1.88440966796875,1.517364501953125,1.9360404014587402,4.503714561462402
1715114150313359600,1.894359619140625,0.9686126708984375,0.6597900390625,0.8351535797119141
1715114150323309600,1.9043095703125,1.2009696960449219,-1.9141192436218262,-4.78125524520874
1715114150333259500,1.914259521484375,2.633737564086914,-3.496066093444824,-8.606374740600586
1715114150343209500,1.92420947265625,6.816461563110352,-2.4809141159057617,-4.554409027099609
1715114150353159400,1.934159423828125,8.559493064880371,-2.0206406116485596,1.8127045631408691
1715114150363109400,1.944109375,6.226219177246094,-2.0093095302581787,3.447155475616455
1715114150373059300,1.954059326171875,2.743539810180664,-2.0667786598205566,2.393305778503418
1715114150383009300,1.96400927734375,0.13274669647216797,-2.545942783355713,0.3686189651489258
1715114150392959200,1.973959228515625,-1.029024600982666,-3.35060453414917,-1.6092605590820312
1715114150402909200,1.9839091796875,-0.027959823608398438,-3.4960927963256836,-3.6127493381500244
1715114150412859100,1.993859130859375,0.00128936767578125,-2.7216525077819824,-5.096002578735352
1715114150422809000,2.00380908203125,-0.11760997772216797,-2.802189826965332,-4.822519779205322
1715114150432759000,2.013759033203125,0.07013320922851562,-2.3192496299743652,-3.6170477867126465
1715114150442709000,2.023708984375,0.47043752670288086,-1.1226387023925781,-0.11649847030639648
1715114150452659000,2.033658935546875,0.4627256393432617,-0.49173402786254883,3.599306583404541
1715114150462609000,2.04360888671875,-1.08286714553833,0.17498779296875,9.098472595214844
1715114150472558800,2.053558837890625,-1.5425868034362793,1.567056655883789,13.233322143554688
1715114150482508800,2.0635087890625,-0.931849479675293,2.0427966117858887,5.881027698516846
1715114150492458800,2.073458740234375,-0.7613534927368164,0.24611806869506836,0.23333072662353516
1715114150502408700,2.08340869140625,-0.905327320098877,-1.2454216480255127,-4.164403915405273
1715114150512358700,2.093358642578125,-2.0433812141418457,-1.142077922821045,-5.89950704574585
1715114150522308400,2.103308349609375,-2.1397571563720703,-0.19326233863830566,-6.47654914855957
1715114150532258300,2.11325830078125,-1.7429084777832031,-0.6408476829528809,-8.138490676879883
1715114150542208300,2.123208251953125,-1.1185698509216309,-1.774968147277832,-10.640421867370605
1715114150552158200,2.133158203125,-1.5758309364318848,-1.822300910949707,-10.473198890686035
1715114150562108200,2.143108154296875,-1.6714582443237305,-0.6757693290710449,-7.124353885650635
1715114150572058000,2.15305810546875,-1.811666488647461,0.911864161491394,-2.7855324745178223
1715114150582008000,2.163008056640625,-2.8466782569885254,2.0778348445892334,0.47530126571655273
1715114150591958000,2.1729580078125,-3.5248775482177734,2.896496534347534,2.167797088623047
1715114150601908000,2.182907958984375,-4.734399795532227,2.7888824939727783,2.0782179832458496
1715114150611858000,2.19285791015625,-5.107698440551758,2.0602004528045654,0.4074702262878418
1715114150621807900,2.202807861328125,-3.5436816215515137,1.7897515296936035,-1.8514227867126465
1715114150631757800,2.2127578125,-3.3798470497131348,1.6447269916534424,-1.8409233093261719
1715114150641707800,2.222707763671875,-2.918755531311035,1.1708505153656006,-1.4735908508300781
1715114150651657700,2.23265771484375,-2.595721483230591,0.578460693359375,-2.2277512550354004
1715114150661607700,2.242607666015625,-2.6179025173187256,0.14772891998291016,-3.751098155975342
1715114150671557600,2.2525576171875,-3.5717592239379883,-0.44100427627563477,-4.845189571380615
1715114150681507600,2.262507568359375,-3.9685378074645996,-1.2076096534729004,-5.336618423461914
1715114150691457500,2.27245751953125,-4.4652018547058105,-1.462587594985962,-2.799710273742676
1715114150701407500,2.282407470703125,-4.532777309417725,-1.9286730289459229,-2.7858548164367676
1715114150711357400,2.292357421875,-5.926235198974609,-2.5107345581054688,-3.270904064178467
1715114150721307400,2.302307373046875,-10.876455307006836,-3.071037769317627,-0.8390669822692871
1715114150731257300,2.31225732421875,-9.198426246643066,-2.654223918914795,0.9899740219116211
1715114150741207300,2.322207275390625,-5.688773155212402,-2.2499303817749023,13.016237258911133
1715114150751157200,2.3321572265625,-3.563352584838867,1.2480313777923584,21.837352752685547
1715114150761107200,2.342107177734375,-2.7694907188415527,2.8726227283477783,19.87409210205078
1715114150771057200,2.35205712890625,-1.9434046745300293,-0.7509565353393555,12.0120849609375
1715114150781007000,2.362007080078125,0.6089649200439453,-1.4957966804504395,6.543457984924316
1715114150790957000,2.37195703125,4.354592800140381,-0.7514920234680176,2.660573959350586
1715114150800907000,2.381906982421875,3.886543035507202,-1.8789105415344238,1.4240522384643555
1715114150810857000,2.39185693359375,-0.03804290294647217,-4.553075313568115,-0.6690592765808105
1715114150820807000,2.401806884765625,-0.6344203352928162,-4.953012943267822,-4.537097930908203
1715114150830756600,2.411756591796875,-0.8199238777160645,-4.074883460998535,-7.157811164855957
1715114150840706600,2.42170654296875,2.0167174339294434,0.9224262237548828,-5.931957721710205
1715114150850656500,2.431656494140625,6.559162616729736,5.389735221862793,-1.9482011795043945
1715114150860606500,2.4416064453125,9.05932331085205,4.9195685386657715,-1.7579302787780762
1715114150870556400,2.451556396484375,5.097823143005371,0.5867509841918945,-0.16234397888183594
1715114150880506000,2.461506103515625,0.6252748370170593,-1.9621272087097168,-0.4638991355895996
1715114150890456000,2.4714560546875,-1.2002809047698975,-2.2881832122802734,-0.5479326248168945
1715114150900406000,2.481406005859375,-0.7329155206680298,-1.940812587738037,0.1703319549560547
1715114150910356000,2.49135595703125,-0.7888528108596802,0.41884469985961914,1.8939356803894043
1715114150920305700,2.5013056640625,8.201386451721191,4.525935173034668,1.313032627105713
1715114150930255600,2.511255615234375,9.513425827026367,1.4922351837158203,1.2535724639892578
1715114150940205600,2.52120556640625,8.46888256072998,-1.7173919677734375,1.1606359481811523
1715114150950155500,2.531155517578125,6.31329345703125,-3.711181640625,-0.33007001876831055
1715114150960105500,2.54110546875,4.550625801086426,-2.342174530029297,-0.31467628479003906
1715114150970055200,2.55105517578125,0.40628790855407715,-0.7715892791748047,-1.636746883392334
1715114150980005000,2.561005126953125,-2.640784978866577,-0.5493936538696289,-2.076970100402832
1715114150989955000,2.570955078125,-2.7989373207092285,-0.3292579650878906,-0.8318648338317871
1715114150999905000,2.580905029296875,-1.8869893550872803,0.20451736450195312,0.49761486053466797
1715114151009854700,2.590854736328125,-2.1544601917266846,0.9703965187072754,0.24485540390014648
1715114151019804700,2.6008046875,-3.2280547618865967,2.1036834716796875,-0.8173027038574219
1715114151029754600,2.610754638671875,-3.7568576335906982,5.591164588928223,-4.68628454208374
1715114151039704600,2.62070458984375,-3.004190683364868,7.483277320861816,-4.800015449523926
1715114151049654500,2.630654541015625,-1.900861144065857,7.573383808135986,-4.516685962677002
1715114151059604200,2.640604248046875,-0.7919235229492188,6.15593147277832,-5.690114498138428
1715114151069554200,2.65055419921875,-0.26366162300109863,4.637895584106445,-6.750267028808594
1715114151079504100,2.660504150390625,0.19422507286071777,4.7116241455078125,-5.8580241203308105
1715114151089454000,2.6704541015625,0.2602560520172119,4.827375411987305,-5.019571781158447
1715114151099403800,2.68040380859375,-0.06816554069519043,5.130903720855713,-4.3217082023620605
1715114151109353700,2.690353759765625,-0.19847416877746582,5.52631950378418,-3.6073977947235107
1715114151119303700,2.7003037109375,-0.27121424674987793,5.998919486999512,-2.9696831703186035
1715114151129253600,2.710253662109375,-0.8554685115814209,6.432492733001709,-2.326176643371582
1715114151139203600,2.72020361328125,-1.3448536396026611,6.097786903381348,-1.7084107398986816
1715114151149153300,2.7301533203125,-1.4315630197525024,5.816012382507324,-1.6591001749038696
1715114151159103200,2.740103271484375,-1.873630404472351,5.194195747375488,-1.3358426094055176
1715114151169053200,2.75005322265625,-8.754752159118652,4.046642303466797,2.1784508228302
1715114151179003100,2.760003173828125,-4.239279270172119,3.550842761993408,-0.6762181520462036
1715114151188952800,2.769952880859375,-2.707103729248047,2.827829360961914,-1.800955891609192
1715114151198902800,2.77990283203125,-3.9850218296051025,0.5495977401733398,-2.262101888656616
1715114151208852700,2.789852783203125,-5.639997482299805,-23.82851791381836,-4.4137864112854
1715114151218802700,2.799802734375,-2.281398057937622,-44.34601593017578,-6.562308311462402
1715114151228752600,2.809752685546875,-0.8947620391845703,-31.653160095214844,-0.1537899672985077
1715114151238702300,2.819702392578125,3.878666400909424,-15.871246337890625,6.9835381507873535
1715114151248652300,2.82965234375,2.4478607177734375,-9.692437171936035,12.844666481018066
1715114151258602200,2.839602294921875,-2.604064464569092,-6.459334373474121,20.850811004638672
1715114151268552200,2.84955224609375,-1.629553198814392,-1.5559844970703125,20.99765968322754
1715114151278502100,2.859502197265625,-0.20859456062316895,-0.7045726776123047,6.858699798583984
1715114151288452000,2.8694521484375,0.011248350143432617,-2.7947845458984375,0.021638989448547363
1715114151298402000,2.879402099609375,-1.6102670431137085,-3.3951845169067383,-2.255077362060547
1715114151308352000,2.88935205078125,-10.742843627929688,-2.0260486602783203,-3.9989686012268066
1715114151318302000,2.899302001953125,-25.92207908630371,-2.7167606353759766,-6.52322244644165
1715114151328252000,2.909251953125,-17.590974807739258,-1.353194236755371,-2.2074220180511475
1715114151338201900,2.919201904296875,-5.757142543792725,-1.1992816925048828,2.5728440284729004
1715114151348151800,2.92915185546875,0.019805312156677246,-2.934922218322754,2.302616596221924
1715114151358101800,2.939101806640625,2.8315043449401855,-5.22639274597168,-1.9489030838012695
1715114151368051700,2.9490517578125,2.9121816158294678,-7.184328079223633,-6.930798053741455
1715114151378001700,2.959001708984375,2.704524040222168,-7.866278648376465,-8.472906112670898
1715114151387951600,2.96895166015625,3.1458024978637695,-6.839316368103027,-4.771487236022949
1715114151397901600,2.978901611328125,4.155783653259277,-6.151459693908691,-2.252944231033325
1715114151407851500,2.9888515625,4.574946403503418,-6.548486709594727,-2.126281976699829
1715114151417801200,2.99880126953125,4.172409534454346,-7.617348670959473,-2.9299752712249756
1715114151427751200,3.008751220703125,3.1448822021484375,-8.954347610473633,-4.193334102630615
1715114151437701000,3.018701171875,2.297414541244507,-9.66715145111084,-6.020749568939209
1715114151447651000,3.028651123046875,2.8593244552612305,-9.251493453979492,-6.617783069610596
1715114151457601000,3.03860107421875,1.7343348264694214,-6.950553894042969,-5.07446813583374
1715114151467551000,3.048551025390625,1.294600009918213,-3.9084300994873047,-2.7990059852600098
1715114151477501000,3.0585009765625,2.8489389419555664,-1.4800033569335938,-1.8068920373916626
1715114151487451000,3.068450927734375,4.8855791091918945,0.9137725830078125,-1.0687156915664673
1715114151497400800,3.07840087890625,7.382476329803467,2.019796848297119,-0.62665194272995
1715114151507350800,3.088350830078125,9.109973907470703,3.502309799194336,1.2693586349487305
1715114151517300700,3.09830078125,9.993961334228516,4.7218499183654785,3.800565242767334
1715114151527250700,3.108250732421875,9.089744567871094,5.245548248291016,5.488282203674316
1715114151537200600,3.11820068359375,6.851343154907227,5.251544952392578,6.309450149536133
1715114151547150600,3.128150634765625,4.75938081741333,5.188779830932617,6.206160068511963
1715114151557100500,3.1381005859375,4.385891437530518,5.142340660095215,4.745855808258057
1715114151567050500,3.148050537109375,4.2700724601745605,5.357505798339844,3.497248411178589
1715114151577000400,3.15800048828125,4.371364116668701,5.813404083251953,2.683469772338867
1715114151586950400,3.167950439453125,4.87562894821167,6.348123550415039,2.116661310195923
1715114151596900400,3.177900390625,5.543534278869629,6.80291748046875,0.9106965661048889
1715114151606850300,3.187850341796875,6.019164562225342,7.717913627624512,-0.11767089366912842
1715114151616800300,3.19780029296875,6.968469619750977,8.742376327514648,-0.7924940586090088
1715114151626750200,3.207750244140625,7.939737796783447,9.568685531616211,-0.4454670250415802
1715114151636700200,3.2177001953125,8.786226272583008,10.251691818237305,0.24892094731330872
1715114151646650000,3.227650146484375,10.345519065856934,10.43953800201416,0.3398630917072296
1715114151656600000,3.23760009765625,11.250276565551758,9.882726669311523,-0.7061469554901123
1715114151666550000,3.247550048828125,10.354785919189453,8.697073936462402,-3.223231554031372
1715114151676500000,3.2575,8.970356941223145,7.077414512634277,-5.232814788818359
1715114151686450000,3.267449951171875,6.172738552093506,4.894599914550781,-6.275370121002197
1715114151696400000,3.27739990234375,-3.370865821838379,1.7145733833312988,-6.391272068023682
1715114151706349800,3.287349853515625,-21.21489715576172,-4.517786979675293,-4.7323832511901855
1715114151716299800,3.2972998046875,-31.651012420654297,-16.82077980041504,1.0165828466415405
1715114151726249700,3.307249755859375,-19.750301361083984,-24.090137481689453,1.9886261224746704
1715114151736199700,3.31719970703125,-8.280101776123047,-18.631105422973633,1.5328047275543213
1715114151746149600,3.327149658203125,-3.10498046875,-8.665352821350098,1.8033438920974731
1715114151756099600,3.337099609375,-1.991344928741455,-0.7818641662597656,1.2859370708465576
1715114151766049500,3.347049560546875,-2.551558017730713,3.5702033042907715,-1.489694356918335
1715114151775999500,3.35699951171875,-2.2954154014587402,5.281587600708008,-4.3979082107543945
1715114151785949400,3.366949462890625,-1.1633906364440918,4.55092191696167,-6.480860233306885
1715114151795899400,3.3768994140625,0.16069650650024414,1.488110065460205,-7.494910717010498
1715114151805849300,3.386849365234375,0.42461156845092773,-3.2695322036743164,-9.25104808807373
1715114151815799300,3.39679931640625,0.932440996170044,-7.351290702819824,-10.096426010131836
1715114151825749200,3.406749267578125,3.429745674133301,-6.891080856323242,-5.978133201599121
1715114151835699200,3.41669921875,5.795041084289551,-2.8147735595703125,0.9028985500335693
1715114151845649000,3.42664892578125,5.8937578201293945,-0.616302490234375,2.9923648834228516
1715114151855598800,3.436598876953125,7.1346845626831055,-0.1090545654296875,1.2367862462997437
1715114151865548800,3.446548828125,8.195331573486328,0.13844966888427734,-2.420522689819336
1715114151875498800,3.456498779296875,6.2192840576171875,0.9332599639892578,-5.706066131591797
1715114151885448700,3.46644873046875,3.8360679149627686,1.6726574897766113,-7.595398902893066
1715114151895398400,3.4763984375,2.7704086303710938,1.428201675415039,-8.764118194580078
1715114151905348400,3.486348388671875,6.794659614562988,0.6465568542480469,-8.01272201538086
1715114151915298300,3.49629833984375,10.563518524169922,0.21967506408691406,-5.394043922424316
1715114151925248300,3.506248291015625,11.221976280212402,0.21796894073486328,-2.8416433334350586
1715114151935198000,3.516197998046875,10.767333984375,0.36794471740722656,-0.8941607475280762
1715114151945148000,3.52614794921875,9.628946304321289,0.35204029083251953,0.26547789573669434
1715114151955097900,3.536097900390625,8.059924125671387,-0.00011539459228515625,0.7570331692695618
1715114151965047800,3.5460478515625,5.800511360168457,-0.5047740936279297,1.4160369634628296
1715114151974997800,3.555997802734375,3.786874532699585,-1.5303077697753906,1.8283324241638184
1715114151984947500,3.565947509765625,2.3032822608947754,-3.388686180114746,2.360416889190674
1715114151994897400,3.5758974609375,2.2851290702819824,-4.7154035568237305,4.604691505432129
1715114152004847400,3.585847412109375,3.9804012775421143,-5.164243698120117,7.536954879760742
1715114152014797300,3.59579736328125,4.08815336227417,-5.196608543395996,10.275946617126465
1715114152024747000,3.6057470703125,-1.0871225595474243,-4.267131805419922,12.290632247924805
1715114152034697000,3.615697021484375,-2.721933364868164,-3.002655029296875,8.889081001281738
1715114152044647000,3.62564697265625,-1.6263558864593506,-2.000300407409668,7.592823028564453
1715114152054596900,3.635596923828125,-0.8687023520469666,-0.5726213455200195,7.507328033447266
1715114152064546800,3.645546875,-1.7517824172973633,0.9570789337158203,6.525249481201172
1715114152074496500,3.65549658203125,-4.083080768585205,2.070615768432617,4.861498832702637
1715114152084446500,3.665446533203125,-6.127554416656494,2.7594528198242188,2.5735621452331543
1715114152094396400,3.675396484375,-6.031652450561523,3.225797176361084,0.6329152584075928
1715114152104346400,3.685346435546875,-3.910768985748291,3.295719623565674,-1.1996448040008545
1715114152114296000,3.695296142578125,-1.554385781288147,3.01324462890625,-3.035048484802246
1715114152124246000,3.70524609375,-0.327972412109375,2.9432859420776367,-3.2040371894836426
1715114152134196000,3.715196044921875,-0.3331475257873535,2.962249755859375,-2.8213682174682617
1715114152144146000,3.72514599609375,-0.9587165117263794,3.104809284210205,-2.4551968574523926
1715114152154095900,3.735095947265625,-1.422593116760254,3.444794178009033,-1.2474327087402344
1715114152164045600,3.745045654296875,-1.3818193674087524,3.2354483604431152,-1.8393299579620361
1715114152173995500,3.75499560546875,-1.0214307308197021,2.7698259353637695,-4.083763122558594
1715114152183945500,3.764945556640625,-2.7332844734191895,1.9009757041931152,-5.431154727935791
1715114152193895400,3.7748955078125,-9.596075057983398,0.988408088684082,-6.536503791809082
1715114152203845000,3.78484521484375,-12.50350570678711,-0.04248046875,-5.166048526763916
1715114152213795000,3.794795166015625,-8.986054420471191,-0.7616138458251953,-2.0646121501922607
1715114152223745000,3.8047451171875,-4.855592250823975,-1.8294782638549805,0.03452873229980469
1715114152233695000,3.814695068359375,-2.787346124649048,-3.229466438293457,1.3836047649383545
1715114152243645000,3.82464501953125,-2.555596113204956,-4.4525651931762695,3.2010409832000732
1715114152253594600,3.8345947265625,-3.3974101543426514,-5.38264274597168,5.3707356452941895
1715114152263544600,3.844544677734375,-4.963706016540527,-5.413352966308594,7.485271453857422
1715114152273494500,3.85449462890625,-6.060677528381348,-4.780196189880371,8.126500129699707
1715114152283444500,3.864444580078125,-5.695959091186523,-4.2726240158081055,7.874863624572754
1715114152293394400,3.87439453125,-4.586512088775635,-4.08090877532959,7.498785495758057
1715114152303344400,3.884344482421875,-4.256491661071777,-4.121943473815918,6.970834255218506
1715114152313294300,3.89429443359375,-4.95506477355957,-4.1975507736206055,6.639385223388672
1715114152323244300,3.904244384765625,-5.362164497375488,-4.269838333129883,6.803267002105713
1715114152333194200,3.9141943359375,-4.577150344848633,-4.414960861206055,6.158865928649902
1715114152343144200,3.924144287109375,-3.383493185043335,-4.2670488357543945,5.012699127197266
1715114152353094100,3.93409423828125,-2.8942224979400635,-4.070583343505859,3.3883748054504395
1715114152363044000,3.944044189453125,-3.6789865493774414,-4.390266418457031,1.2023215293884277
1715114152372994000,3.953994140625,-5.43143367767334,-4.750858306884766,-0.9348090291023254
1715114152382944000,3.963944091796875,-5.915402412414551,-4.7701005935668945,-2.723637342453003
1715114152392894000,3.97389404296875,-3.9692721366882324,-4.749985694885254,-3.7386488914489746
1715114152402844000,3.983843994140625,-0.7140556573867798,-4.6641645431518555,-4.181785583496094
1715114152412793900,3.9937939453125,2.1350879669189453,-4.507683753967285,-3.845052480697632
1715114152422743800,4.003743896484375,3.7739219665527344,-4.816497802734375,-3.336730480194092
1715114152432693800,4.01369384765625,4.443398475646973,-5.750731468200684,-2.6153128147125244
1715114152442643700,4.023643798828125,5.043805122375488,-7.25042724609375,-1.9057095050811768
1715114152452593700,4.03359375,7.260112762451172,-8.775758743286133,-3.7532973289489746
1715114152462543600,4.043543701171875,9.65812873840332,-9.8319673538208,-6.69564962387085
1715114152472493600,4.05349365234375,10.641911506652832,-9.411198616027832,-8.713953971862793
1715114152482443500,4.063443603515625,8.133321762084961,-7.250781059265137,-8.21695613861084
1715114152492393500,4.0733935546875,-4.518474102020264,-5.0778093338012695,-4.479475975036621
1715114152502343400,4.083343505859375,-7.54921817779541,-3.8051624298095703,-3.798067569732666
1715114152512293400,4.09329345703125,-3.4604220390319824,-2.3354902267456055,-3.445258378982544
1715114152522243300,4.103243408203125,0.8274469375610352,-0.47803211212158203,-1.9044896364212036
1715114152532193300,4.113193359375,4.479596138000488,1.534332275390625,-0.05506497621536255
1715114152542143200,4.123143310546875,8.293355941772461,3.2607779502868652,1.2388916015625
1715114152552093200,4.13309326171875,10.078479766845703,4.111085414886475,2.7096312046051025
1715114152562043000,4.14304296875,9.33183479309082,4.481550216674805,5.001511096954346
1715114152571992800,4.152992919921875,7.807886123657227,4.5652265548706055,6.870297908782959
1715114152581942800,4.16294287109375,5.628678798675537,4.226369857788086,8.697122573852539
1715114152591892700,4.172892822265625,3.33691143989563,3.6069483757019043,8.592233657836914
1715114152601842700,4.1828427734375,3.6018524169921875,3.448073387145996,6.362426280975342
1715114152611792600,4.192792724609375,4.500575542449951,3.7304978370666504,4.207737922668457
1715114152621742600,4.20274267578125,6.232866287231445,4.616076946258545,3.0617339611053467
1715114152631692500,4.212692626953125,8.105079650878906,5.8920135498046875,2.2011022567749023
1715114152641642500,4.222642578125,9.59564208984375,6.9440202713012695,1.2839072942733765
1715114152651592400,4.232592529296875,10.365001678466797,7.7626495361328125,0.7630331516265869
1715114152661542400,4.24254248046875,10.710445404052734,8.245342254638672,0.3377230167388916
1715114152671492400,4.252492431640625,10.703144073486328,8.449247360229492,-0.5806952118873596
1715114152681442300,4.2624423828125,10.249248504638672,8.538907051086426,-1.50095534324646
1715114152691392300,4.272392333984375,9.947376251220703,8.429411888122559,-2.5173492431640625
1715114152701342200,4.28234228515625,11.055400848388672,8.656794548034668,-2.3173940181732178
1715114152711292200,4.292292236328125,11.620904922485352,8.709807395935059,-1.3815593719482422
1715114152721242000,4.3022421875,10.667644500732422,7.907857894897461,-2.089649200439453
1715114152731192000,4.312192138671875,9.013236999511719,6.0981340408325195,-3.5366334915161133
1715114152741142000,4.32214208984375,1.269526481628418,3.221217632293701,-5.362061023712158
1715114152751092000,4.332092041015625,-22.596778869628906,-3.2024707794189453,-8.714235305786133
1715114152761042000,4.3420419921875,-39.658206939697266,-15.967670440673828,-6.624421119689941
1715114152770991900,4.351991943359375,-23.782840728759766,-20.996919631958008,-3.13206148147583
1715114152780941800,4.36194189453125,-6.470888137817383,-15.36888599395752,2.3890981674194336
1715114152790891800,4.371891845703125,-3.876246452331543,-9.375012397766113,2.4277329444885254
1715114152800841700,4.381841796875,-3.2830233573913574,-2.637701988220215,1.296020746231079
1715114152810791700,4.391791748046875,-3.979515552520752,2.129349708557129,-1.127423882484436
1715114152820741600,4.40174169921875,-4.3993330001831055,3.271862506866455,-4.755681037902832
1715114152830691600,4.411691650390625,-4.57439661026001,0.26424407958984375,-9.644234657287598
1715114152840641500,4.4216416015625,-2.6240973472595215,-4.576775550842285,-11.842792510986328
1715114152850591500,4.431591552734375,0.3074183464050293,-9.325203895568848,-12.695409774780273
1715114152860541400,4.44154150390625,5.9504170417785645,-10.393281936645508,-10.278164863586426
1715114152870491400,4.451491455078125,8.140216827392578,-6.985332489013672,-3.3690338134765625
1715114152880441300,4.46144140625,9.198700904846191,-1.3020572662353516,1.2449736595153809
1715114152890391300,4.471391357421875,10.793336868286133,3.142612934112549,0.7113136053085327
1715114152900341200,4.48134130859375,10.306402206420898,5.377649784088135,-0.2598733901977539
1715114152910291200,4.491291259765625,9.478171348571777,4.363832950592041,-2.7818946838378906
1715114152920241200,4.5012412109375,11.652032852172852,1.3670477867126465,-4.843235015869141
1715114152930191000,4.511191162109375,14.806197166442871,-1.0064849853515625,-4.426033020019531
1715114152940140800,4.521140869140625,15.3571195602417,-1.9552526473999023,-2.624717950820923
1715114152950090800,4.5310908203125,14.072551727294922,-2.0280303955078125,-1.3750100135803223
1715114152960040700,4.541040771484375,11.362005233764648,-1.5283823013305664,-0.5434949398040771
1715114152969990700,4.55099072265625,8.033546447753906,-1.1737747192382812,-0.12844669818878174
1715114152979940400,4.5609404296875,4.758790016174316,-0.9938678741455078,0.4297088384628296
1715114152989890300,4.570890380859375,1.693658709526062,-1.2083778381347656,1.767627477645874
1715114152999840300,4.58084033203125,-0.6106767654418945,-2.6731395721435547,2.3548409938812256
1715114153009790200,4.590790283203125,-0.7229169607162476,-4.419682502746582,3.1560556888580322
1715114153019740200,4.600740234375,2.42183780670166,-4.652436256408691,5.90717887878418
1715114153029689900,4.61068994140625,5.3105902671813965,-4.386351585388184,9.858110427856445
1715114153039639800,4.620639892578125,6.02425479888916,-3.9062013626098633,12.835034370422363
1715114153049589800,4.63058984375,2.1930594444274902,-2.3944711685180664,12.109560012817383
1715114153059539700,4.640539794921875,0.8942493796348572,-1.144613265991211,9.34140682220459
1715114153069489400,4.650489501953125,0.7399410605430603,-0.4745464324951172,8.993762969970703
1715114153079439400,4.660439453125,-1.647896409034729,0.177093505859375,7.9281086921691895
1715114153089389300,4.670389404296875,-4.653553485870361,1.2417793273925781,6.251704692840576
1715114153099339300,4.68033935546875,-7.402283668518066,2.159792900085449,4.193680763244629
1715114153109289200,4.690289306640625,-7.834094524383545,2.70670223236084,1.5168123245239258
1715114153119239000,4.700239013671875,-5.44083309173584,3.113445281982422,-1.7994645833969116
1715114153129188900,4.71018896484375,-3.082024097442627,2.817605972290039,-3.7692246437072754
1715114153139138800,4.720138916015625,-1.3998870849609375,2.109208106994629,-4.220370292663574
1715114153149088800,4.7300888671875,-0.565437912940979,1.6403474807739258,-3.545882225036621
1715114153159038500,4.74003857421875,0.1059960126876831,1.639216423034668,-3.5411555767059326
1715114153168988400,4.749988525390625,-0.2594987154006958,2.20444917678833,-2.9090170860290527
1715114153178938400,4.7599384765625,-1.4809365272521973,2.8898544311523438,-0.7071734070777893
1715114153188888300,4.769888427734375,-1.3674923181533813,2.650233268737793,-2.0885825157165527
1715114153198838300,4.77983837890625,-2.0754518508911133,1.7162818908691406,-4.833774566650391
1715114153208788000,4.7897880859375,-9.618928909301758,0.6114683151245117,-7.712915420532227
1715114153218738000,4.799738037109375,-13.62521743774414,-0.20665454864501953,-7.4241156578063965
1715114153228688000,4.80968798828125,-9.482361793518066,-0.36872005462646484,-4.069678783416748
1715114153238637800,4.819637939453125,-4.456855773925781,-1.0137014389038086,-1.5332927703857422
1715114153248587500,4.82958740234375,-1.9219685792922974,-2.168524742126465,0.35403403639793396
1715114153258537500,4.839537353515625,-1.8568005561828613,-3.2804384231567383,2.4938101768493652
1715114153268487400,4.8494873046875,-2.9696640968322754,-3.9503860473632812,4.277338981628418
1715114153278437400,4.859437255859375,-3.853713035583496,-3.616758346557617,5.815864562988281
1715114153288387300,4.86938720703125,-4.369699001312256,-3.262788772583008,7.2427191734313965
1715114153298337300,4.879337158203125,-4.147989273071289,-3.294168472290039,7.714110374450684
1715114153308287200,4.889287353515625,-3.206366539001465,-3.221250534057617,7.9603471755981445
1715114153318237200,4.8992373046875,-2.5753207206726074,-3.3109025955200195,7.9171342849731445
1715114153328187100,4.909187255859375,-3.148113489151001,-3.6309337615966797,7.308435440063477
1715114153338137000,4.91913720703125,-4.0929155349731445,-4.002854347229004,6.677066802978516
1715114153348087000,4.929087158203125,-4.694445610046387,-4.286497116088867,5.727357864379883
1715114153358036700,4.93903662109375,-5.122944355010986,-4.415377616882324,4.083157062530518
1715114153367986700,4.948986572265625,-6.949159622192383,-4.012993812561035,4.089836120605469
1715114153377936600,4.9589365234375,-8.419378280639648,-3.885150909423828,2.1838929653167725
1715114153387886600,4.968886474609375,-7.959768772125244,-3.7148704528808594,-0.11796960234642029
1715114153397836500,4.97883642578125,-5.627984046936035,-3.6493778228759766,-0.7433719635009766
1715114153407786500,4.988786376953125,-2.7549996376037598,-3.6181793212890625,0.21386703848838806
1715114153417736400,4.998736328125,-1.6399996280670166,-3.668534278869629,1.058322787284851
1715114153427686400,5.008686279296875,-0.6455590724945068,-3.8411407470703125,0.230694979429245
1715114153437636400,5.01863623046875,1.2561774253845215,-4.025141716003418,-1.1377745866775513
1715114153447586300,5.02858642578125,3.209158420562744,-4.615335464477539,-2.5992844104766846
1715114153457536300,5.038536376953125,4.789538383483887,-5.669161796569824,-3.492838144302368
1715114153467486200,5.048486328125,5.446475505828857,-6.80319881439209,-3.4291787147521973
1715114153477436200,5.058436279296875,5.761992454528809,-7.830959320068359,-3.2314252853393555
1715114153487386000,5.06838623046875,6.179385185241699,-8.442575454711914,-3.4730420112609863
1715114153497336000,5.078336181640625,6.128716468811035,-8.500326156616211,-3.7748615741729736
1715114153507286000,5.0882861328125,1.9853923320770264,-8.560136795043945,-4.753597259521484
1715114153517236000,5.098236083984375,-3.6320865154266357,-8.276883125305176,-6.348931789398193
1715114153527186000,5.10818603515625,-4.07734489440918,-6.685856819152832,-6.287206649780273
1715114153537135900,5.118135986328125,-0.9661858081817627,-3.906254768371582,-4.803630352020264
1715114153547085800,5.1280859375,2.4790022373199463,-1.1845989227294922,-3.49483585357666
1715114153557035800,5.138035888671875,4.8578386306762695,1.199131965637207,-3.0711867809295654
1715114153566985700,5.14798583984375,6.725543975830078,3.2122597694396973,-1.3563477993011475
1715114153576935700,5.157935791015625,7.920017242431641,4.198294639587402,-0.6503310203552246
1715114153586885600,5.1678857421875,8.644689559936523,5.142661094665527,1.4395846128463745
1715114153596835600,5.177835693359375,8.404298782348633,5.959291458129883,4.89088773727417
1715114153606785500,5.18778564453125,6.860991477966309,5.644862651824951,6.932190895080566
1715114153616735500,5.197735595703125,5.098385810852051,4.451915264129639,8.484224319458008
1715114153626685400,5.207685546875,3.333827495574951,3.094363212585449,8.122766494750977
1715114153636635400,5.217635498046875,4.052662372589111,2.9013242721557617,5.615192890167236
1715114153646585300,5.22758544921875,5.588651180267334,3.294590473175049,3.3790414333343506
1715114153656535300,5.237535400390625,7.163476467132568,4.063804626464844,3.088347911834717
1715114153666485200,5.2474853515625,8.10340404510498,4.857837677001953,3.3487234115600586
1715114153676435200,5.257435302734375,9.046743392944336,5.6577911376953125,2.6021499633789062
1715114153686385200,5.26738525390625,9.742923736572266,6.289027214050293,1.8725045919418335
1715114153696335000,5.277335205078125,9.887417793273926,6.7524213790893555,1.0675987005233765
1715114153706285000,5.28728515625,10.182165145874023,7.051578998565674,0.09444564580917358
1715114153716235000,5.297235107421875,10.401134490966797,7.266726493835449,-0.29503095149993896
1715114153726185000,5.30718505859375,10.403575897216797,7.550258636474609,0.06299877166748047
1715114153736135000,5.317135009765625,11.450301170349121,7.482590675354004,0.6057448387145996
1715114153746084900,5.3270849609375,11.903286933898926,7.020409107208252,0.32859301567077637
1715114153756034800,5.337034912109375,9.873491287231445,5.926713943481445,-1.6340620517730713
1715114153765984800,5.34698486328125,7.0532708168029785,4.394461154937744,-3.6358001232147217
1715114153775934700,5.356934814453125,-3.787283420562744,2.040177345275879,-5.133223533630371
1715114153785884700,5.366884765625,-23.4343318939209,-3.743968963623047,-7.5524492263793945
1715114153795834600,5.376834716796875,-34.20085906982422,-15.25143051147461,-12.774795532226562
1715114153805784600,5.38678466796875,-21.187496185302734,-16.942543029785156,-7.316917419433594
1715114153815734500,5.396734619140625,-6.144786834716797,-12.049076080322266,-0.27234411239624023
1715114153825684500,5.4066845703125,-4.504815578460693,-8.2333345413208,0.6477798223495483
1715114153835634400,5.416634521484375,-5.521842002868652,-2.414004325866699,-0.09212028980255127
1715114153845584400,5.42658447265625,-4.744926452636719,2.7064199447631836,-2.21247935295105
1715114153855534300,5.436534423828125,-3.6250081062316895,4.775830268859863,-4.880549430847168
1715114153865484300,5.446484375,-3.249135971069336,2.8261775970458984,-8.76558780670166
1715114153875434200,5.456434326171875,-0.8728384971618652,-1.8272933959960938,-11.07464599609375
1715114153885384200,5.46638427734375,3.4584884643554688,-6.971195220947266,-12.478449821472168
1715114153895334100,5.476334228515625,9.47816276550293,-9.743207931518555,-11.320489883422852
1715114153905284000,5.4862841796875,9.864123344421387,-8.081172943115234,-5.84692907333374
1715114153915234000,5.496234130859375,5.285248279571533,-4.376126289367676,1.7300660610198975
1715114153925184000,5.50618408203125,6.766441345214844,-1.300663948059082,3.9193317890167236
1715114153935134000,5.516134033203125,9.632736206054688,1.2336039543151855,2.2250022888183594
1715114153945084000,5.526083984375,8.955525398254395,2.415750026702881,0.36964190006256104
1715114153955033900,5.536033935546875,6.742445468902588,1.4981255531311035,-2.399575710296631
1715114153964983800,5.54598388671875,7.100475311279297,-0.6380443572998047,-5.041328430175781
1715114153974933800,5.555933837890625,10.588349342346191,-2.329946517944336,-5.584046363830566
1715114153984883500,5.565883544921875,12.691947937011719,-2.8750810623168945,-3.7200498580932617
1715114153994833400,5.57583349609375,12.368173599243164,-2.244050979614258,-1.1059863567352295
1715114154004783400,5.585783447265625,10.346467018127441,-1.2640008926391602,-0.5237053632736206
1715114154014733300,5.5957333984375,7.725499153137207,-0.31789493560791016,-0.8195629119873047
1715114154024683300,5.605683349609375,5.347855567932129,0.7039461135864258,-0.302581787109375
1715114154034633200,5.61563330078125,3.1703665256500244,1.1956253051757812,0.5762733817100525
1715114154044583200,5.625583251953125,1.6758222579956055,0.7133722305297852,0.9452520608901978
1715114154054533000,5.635533203125,0.4439293146133423,-0.89874267578125,0.8696062564849854
1715114154064483000,5.645483154296875,0.013044357299804688,-2.8446826934814453,2.131892204284668
1715114154074433000,5.65543310546875,2.900265693664551,-3.4489269256591797,6.219112396240234
1715114154084383000,5.665383056640625,6.532360076904297,-3.756044387817383,11.3590726852417
1715114154094333000,5.6753330078125,6.913942337036133,-3.89133358001709,13.521679878234863
1715114154104283000,5.685282958984375,-0.2549957036972046,-2.4306983947753906,10.031774520874023
1715114154114232800,5.69523291015625,-1.8125377893447876,-0.5060596466064453,7.304958820343018
1715114154124182800,5.705182861328125,-0.39006489515304565,0.4430503845214844,7.928158760070801
1715114154134132700,5.7151328125,-1.4651029109954834,1.1937808990478516,6.831372261047363
1715114154144082700,5.725082763671875,-3.8636486530303955,1.5186738967895508,5.063598155975342
1715114154154032600,5.73503271484375,-6.06181001663208,1.8839216232299805,3.9248766899108887
1715114154163982600,5.744982666015625,-6.450296401977539,2.296260356903076,2.1835618019104004
1715114154173932500,5.7549326171875,-4.69917106628418,2.279984951019287,-0.8143744468688965
1715114154183882500,5.764882568359375,-3.409287452697754,1.7640914916992188,-3.4211502075195312
1715114154193832400,5.77483251953125,-2.3695850372314453,1.6051750183105469,-4.160060405731201
1715114154203782400,5.784782470703125,-1.7833648920059204,1.9502196311950684,-4.009123802185059
1715114154213732400,5.794732421875,-1.7013652324676514,2.48697566986084,-3.484639883041382
1715114154223682300,5.804682373046875,-3.1608409881591797,2.750460624694824,-2.0587735176086426
1715114154233632300,5.81463232421875,-6.261946678161621,2.4914751052856445,-3.7763707637786865
1715114154243582200,5.824582275390625,-10.342494010925293,1.3469257354736328,-8.09263801574707
1715114154253532200,5.8345322265625,-9.84341812133789,0.40289306640625,-8.321171760559082
1715114154263482000,5.844482177734375,-5.422463417053223,0.14885234832763672,-5.192335605621338
1715114154273432000,5.85443212890625,-2.3295071125030518,-0.199615478515625,-1.7295243740081787
1715114154283382000,5.864382080078125,-1.4703316688537598,-1.2008352279663086,0.6918436884880066
1715114154293332000,5.87433203125,-2.425717830657959,-2.5904150009155273,2.273066520690918
1715114154303282000,5.884281982421875,-4.03261137008667,-3.9092025756835938,3.2656023502349854
1715114154313232000,5.89423193359375,-5.213320732116699,-4.8412885665893555,4.297346115112305
1715114154323181800,5.904181884765625,-5.638543128967285,-5.14434814453125,5.8400468826293945
1715114154333131800,5.9141318359375,-5.368161201477051,-4.942897796630859,7.321274757385254
1715114154343081700,5.924081787109375,-4.603877067565918,-4.6474103927612305,8.441859245300293
1715114154353031700,5.93403173828125,-3.710203170776367,-4.550554275512695,9.08753776550293
1715114154362981600,5.943981689453125,-3.353985071182251,-4.588868141174316,9.669964790344238
1715114154372931600,5.953931640625,-3.757662773132324,-4.692090034484863,9.62789249420166
1715114154382881500,5.963881591796875,-4.5978240966796875,-4.826274871826172,8.831731796264648
1715114154392831500,5.97383154296875,-5.227415084838867,-4.536016464233398,7.3190765380859375
1715114154402781400,5.983781494140625,-5.613981246948242,-3.4076385498046875,6.344304084777832
1715114154412731100,5.993731201171875,-6.541678428649902,-2.7250890731811523,4.581346035003662
1715114154422681000,6.00368115234375,-6.982691764831543,-2.8560028076171875,1.1013563871383667
1715114154432631000,6.013631103515625,-6.605250358581543,-3.1306581497192383,-1.519817590713501
1715114154442581000,6.0235810546875,-5.421751022338867,-3.647716522216797,-2.8842647075653076
1715114154452531000,6.033531005859375,-3.751810073852539,-3.9531707763671875,-2.7621374130249023
1715114154462480600,6.043480712890625,-2.0710761547088623,-4.13813591003418,-1.4281833171844482
1715114154472430600,6.0534306640625,0.6133108139038086,-4.623751640319824,-1.2655208110809326
1715114154482380500,6.063380615234375,3.341137647628784,-5.763057708740234,-1.5969138145446777
1715114154492330500,6.07333056640625,5.341768741607666,-7.346807479858398,-2.806082248687744
1715114154502280200,6.0832802734375,6.577710151672363,-8.610553741455078,-4.03432035446167
1715114154512230100,6.093230224609375,7.253421783447266,-9.292152404785156,-4.503704071044922
1715114154522180000,6.10318017578125,7.473145961761475,-9.539039611816406,-3.7330565452575684
1715114154532130000,6.113130126953125,8.168190956115723,-9.520950317382812,-4.898159027099609
1715114154542080000,6.123080078125,8.078973770141602,-8.678128242492676,-7.358590602874756
1715114154552029700,6.13302978515625,-3.625424385070801,-7.296794891357422,-6.490421295166016
1715114154561979600,6.142979736328125,-9.620275497436523,-5.711064338684082,-6.557738304138184
1715114154571929600,6.1529296875,-5.476415634155273,-3.7285261154174805,-6.5906829833984375
1715114154581879600,6.162879638671875,-0.06197071075439453,-1.129739761352539,-4.846309661865234
1715114154591829200,6.172829345703125,3.821965456008911,1.7365179061889648,-2.6921064853668213
1715114154601779200,6.182779296875,6.672276496887207,3.939979076385498,-0.7273434400558472
1715114154611729200,6.192729248046875,10.189153671264648,4.704306602478027,-0.313120037317276
1715114154621679000,6.20267919921875,10.87747859954834,5.656485557556152,2.3268380165100098
1715114154631629000,6.212629150390625,8.638526916503906,6.2843780517578125,4.40329647064209
1715114154641578800,6.222578857421875,6.750043869018555,5.65462064743042,6.07996940612793
1715114154651528700,6.23252880859375,4.194445610046387,4.53794527053833,7.521721363067627
1715114154661478700,6.242478759765625,3.0023224353790283,3.281529426574707,8.281888008117676
1715114154671428600,6.2524287109375,3.696218252182007,2.4555306434631348,7.329878807067871
1715114154681378300,6.26237841796875,4.643352508544922,2.5304713249206543,5.578256130218506
1715114154691328300,6.272328369140625,5.949374198913574,3.1684470176696777,3.2167396545410156
1715114154701278200,6.2822783203125,7.8445515632629395,4.04838228225708,1.2370033264160156
1715114154711228200,6.292228271484375,10.054801940917969,4.926158905029297,0.9813196659088135
1715114154721178000,6.30217822265625,11.787195205688477,5.410085678100586,0.3798527121543884
1715114154731128000,6.312128173828125,12.22663402557373,5.704446792602539,-0.8322872519493103
1715114154741078000,6.322078125,11.720861434936523,5.946835994720459,-1.5838806629180908
1715114154751028000,6.332028076171875,10.776329040527344,6.166733741760254,-2.045668125152588
1715114154760978000,6.34197802734375,10.071331024169922,6.53391170501709,-2.249433755874634
1715114154770927900,6.351927978515625,9.819917678833008,6.78994607925415,-2.4337501525878906
1715114154780877800,6.3618779296875,9.346054077148438,7.004184246063232,-2.021071195602417
1715114154790827800,6.371827880859375,9.940874099731445,6.822632312774658,-0.9570270776748657
1715114154800777700,6.38177783203125,9.601154327392578,6.1511969566345215,-1.571114182472229
1715114154810727700,6.391727783203125,4.2107720375061035,4.458912372589111,-4.216405868530273
1715114154820677600,6.401677734375,-15.746024131774902,0.6785736083984375,-7.149243354797363
1715114154830627600,6.411627685546875,-33.68159866333008,-8.722550392150879,-8.926770210266113
1715114154840577500,6.42157763671875,-35.74745178222656,-19.12151336669922,-8.355973243713379
1715114154850527500,6.431527587890625,-11.873811721801758,-18.38198471069336,-0.767516016960144
1715114154860477400,6.4414775390625,-6.011776924133301,-13.93702507019043,1.900647759437561
1715114154870427400,6.451427490234375,-7.269418716430664,-7.252286911010742,1.6663540601730347
1715114154880377300,6.46137744140625,-6.119991302490234,0.7978391647338867,-0.5294324159622192
1715114154890327300,6.471327392578125,-3.3863372802734375,5.916699409484863,-2.791015148162842
1715114154900277200,6.48127734375,-2.202763557434082,7.819762229919434,-4.392940521240234
1715114154910227200,6.491227294921875,-2.593820095062256,6.607714653015137,-6.70098876953125
1715114154920177200,6.50117724609375,0.23639202117919922,1.9869894981384277,-8.02820110321045
1715114154930127000,6.511127197265625,9.572010040283203,-3.88079833984375,-8.565154075622559
1715114154940077000,6.5210771484375,20.205520629882812,-8.313982009887695,-6.890336036682129
1715114154950027000,6.531027099609375,16.51226234436035,-10.366384506225586,-2.753899574279785
1715114154959977000,6.54097705078125,6.374205589294434,-9.821651458740234,4.23328161239624
1715114154969927000,6.550927001953125,0.820270299911499,-8.256006240844727,4.444212436676025
1715114154979876900,6.560876953125,1.673555850982666,-4.090033531188965,-2.007875919342041
1715114154989826800,6.570826904296875,0.5383281707763672,-0.10414981842041016,-4.029925346374512
1715114154999776800,6.58077685546875,2.5588526725769043,0.6986379623413086,-7.119996070861816
1715114155009726700,6.590726806640625,9.89986801147461,0.2632637023925781,-8.219060897827148
1715114155019676700,6.6006767578125,14.180957794189453,0.2531280517578125,-6.323378562927246
1715114155029626600,6.610626708984375,15.125126838684082,0.18703174591064453,-4.032717704772949
1715114155039576600,6.62057666015625,14.358977317810059,-0.05858325958251953,-2.6912288665771484
1715114155049526500,6.630526611328125,12.41974925994873,-0.01639270782470703,-1.6966321468353271
1715114155059476500,6.6404765625,10.134429931640625,0.039526939392089844,-1.2477535009384155
1715114155069426400,6.650426513671875,7.791208267211914,-0.00040721893310546875,-0.757858395576477
1715114155079376400,6.66037646484375,5.8227972984313965,-0.1897125244140625,-0.28574955463409424
1715114155089326300,6.670326416015625,4.572100639343262,-0.36885738372802734,0.1802283525466919
1715114155099276300,6.6802763671875,2.2646732330322266,-0.8234825134277344,0.2640044093132019
1715114155109226200,6.690226318359375,-0.26728880405426025,-1.8047847747802734,0.31642580032348633
1715114155119176200,6.70017626953125,-0.8566002249717712,-3.869023323059082,1.7088329792022705
1715114155129126100,6.710126220703125,1.3219587802886963,-4.821821212768555,5.3831071853637695
1715114155139076000,6.720076171875,3.647951602935791,-4.932170867919922,8.539571762084961
1715114155149026000,6.730026123046875,2.863248348236084,-4.303899765014648,10.725152015686035
1715114155158976000,6.73997607421875,-1.6300160884857178,-1.9769172668457031,9.425459861755371
1715114155168926000,6.749926025390625,0.7706938982009888,-0.2781820297241211,10.11245346069336
1715114155178876000,6.7598759765625,0.8719893097877502,0.14104270935058594,10.223671913146973
1715114155188825900,6.769825927734375,-0.9099441766738892,0.5388412475585938,9.005230903625488
1715114155198775800,6.77977587890625,-3.5735604763031006,1.331930160522461,7.5118608474731445
1715114155208725800,6.789725830078125,-6.23179817199707,2.096513271331787,4.566125869750977
1715114155218675700,6.79967578125,-6.559620380401611,2.448380947113037,0.9528123736381531
1715114155228625700,6.809625732421875,-5.5710554122924805,2.5332765579223633,-2.1550278663635254
1715114155238575600,6.81957568359375,-4.179474353790283,2.482736587524414,-3.213634967803955
1715114155248525600,6.829525634765625,-3.220010995864868,2.408158779144287,-3.3794052600860596
1715114155258475500,6.8394755859375,-2.619168281555176,2.2897467613220215,-3.7162575721740723
1715114155268425500,6.849425537109375,-2.7036654949188232,2.2608532905578613,-3.727388381958008
1715114155278375400,6.85937548828125,-3.884596586227417,2.4094743728637695,-2.9307808876037598
1715114155288325000,6.8693251953125,-7.317562103271484,2.1642355918884277,-3.309122323989868
1715114155298275000,6.879275146484375,-10.780261039733887,1.2310285568237305,-5.113620758056641
1715114155308225000,6.88922509765625,-8.970974922180176,0.2055063247680664,-5.1514177322387695
1715114155318175000,6.899175048828125,-4.533992767333984,-0.8783359527587891,-3.069018840789795
1715114155328125000,6.909125,-1.8008100986480713,-2.009511947631836,-0.48775386810302734
1715114155338075000,6.919074951171875,-1.5954463481903076,-3.222540855407715,1.6095688343048096
1715114155348024800,6.92902490234375,-2.624025344848633,-4.317801475524902,3.4265971183776855
1715114155357974800,6.938974853515625,-3.8586647510528564,-4.774023056030273,5.792957305908203
1715114155367924700,6.9489248046875,-4.83599328994751,-4.348810195922852,7.772388935089111
1715114155377874700,6.958874755859375,-5.037580490112305,-3.9709692001342773,8.733119010925293
1715114155387824600,6.96882470703125,-4.280254364013672,-3.684493064880371,9.083276748657227
1715114155397774600,6.978774658203125,-3.399250030517578,-3.587285041809082,9.246994972229004
1715114155407724500,6.988724609375,-3.5311450958251953,-3.6607866287231445,9.454601287841797
1715114155417674500,6.998674560546875,-4.100462436676025,-3.643549919128418,9.014738082885742
1715114155427624400,7.00862451171875,-4.273810386657715,-3.8348464965820312,7.1620893478393555
1715114155437574400,7.018574462890625,-3.657383918762207,-4.24839973449707,5.168930530548096
1715114155447524400,7.0285244140625,-3.374070167541504,-4.179184913635254,5.390647888183594
1715114155457474300,7.038474365234375,-3.234100341796875,-3.9547042846679688,4.786279678344727
1715114155467424300,7.04842431640625,-3.5595390796661377,-4.016487121582031,1.7148675918579102
1715114155477374200,7.058374267578125,-5.1464996337890625,-3.8769073486328125,-1.333990216255188
1715114155487324200,7.06832421875,-6.876190185546875,-4.220663070678711,-3.814422130584717
1715114155497274000,7.078274169921875,-7.077279090881348,-4.2266740798950195,-4.350574493408203
1715114155507224000,7.08822412109375,-5.294429779052734,-3.779460906982422,-3.4920105934143066
1715114155517174000,7.098174072265625,-2.986058235168457,-3.9183273315429688,-3.069249391555786
1715114155527124000,7.1081240234375,-0.5959353446960449,-4.767326354980469,-2.6186585426330566
1715114155537074000,7.118073974609375,1.4651434421539307,-6.04246711730957,-2.5815935134887695
1715114155547024000,7.12802392578125,3.9683785438537598,-7.550111770629883,-3.2608718872070312
1715114155556973800,7.137973876953125,6.48587703704834,-8.68545150756836,-4.089511871337891
1715114155566923800,7.147923828125,8.086275100708008,-9.273133277893066,-4.361103534698486
1715114155576873700,7.157873779296875,9.080785751342773,-9.584700584411621,-4.650356292724609
1715114155586823700,7.16782373046875,9.97276496887207,-9.25533676147461,-6.247024059295654
1715114155596773600,7.177773681640625,9.610336303710938,-8.097322463989258,-8.124560356140137
1715114155606723600,7.1877236328125,5.748491287231445,-5.943190574645996,-8.745357513427734
1715114155616673500,7.197673583984375,-9.290888786315918,-4.011507987976074,-6.122557163238525
1715114155626623500,7.20762353515625,-9.085260391235352,-3.154325485229492,-6.301992893218994
1715114155636573400,7.217573486328125,-3.4562175273895264,-1.2632761001586914,-5.058366298675537
1715114155646523400,7.2275234375,1.3261194229125977,0.636042594909668,-3.0593130588531494
1715114155656473300,7.237473388671875,4.683171272277832,2.3622231483459473,-1.5145903825759888
1715114155666423300,7.24742333984375,7.999800682067871,3.760413646697998,-0.7352119088172913
1715114155676373200,7.257373291015625,11.064155578613281,5.150506019592285,1.592127799987793
1715114155686323000,7.267322998046875,10.93147087097168,5.881291389465332,4.992428302764893
1715114155696273000,7.27727294921875,9.42658805847168,5.612375736236572,8.00308895111084
1715114155706222800,7.287222900390625,6.844354152679443,4.377731800079346,10.490433692932129
1715114155716172800,7.2971728515625,3.5104856491088867,2.518005847930908,11.163649559020996
1715114155726122800,7.307122802734375,3.1409239768981934,1.4154267311096191,8.913402557373047
1715114155736072400,7.317072509765625,4.448001861572266,1.8623952865600586,5.71265983581543
1715114155746022400,7.3270224609375,6.121582984924316,2.8918113708496094,3.5011610984802246
1715114155755972400,7.336972412109375,7.820857048034668,4.1039347648620605,2.3333542346954346
1715114155765922300,7.34692236328125,9.35141658782959,5.01946496963501,1.4981738328933716
1715114155775872000,7.3568720703125,10.417828559875488,5.811659336090088,0.41420963406562805
1715114155785822000,7.366822021484375,10.599735260009766,6.5096635818481445,-0.8470257520675659
1715114155795772000,7.37677197265625,10.846595764160156,6.9892683029174805,-1.7475194931030273
1715114155805721900,7.386721923828125,11.148958206176758,7.349946022033691,-1.6936885118484497
1715114155815671800,7.396671875,10.6582612991333,7.510653972625732,-1.474691390991211
1715114155825621500,7.40662158203125,10.145721435546875,7.224732398986816,-1.890131950378418
1715114155835571500,7.416571533203125,10.674348831176758,7.323970794677734,-1.4206392765045166
1715114155845521400,7.426521484375,10.868000030517578,7.062978744506836,-1.5141499042510986
1715114155855471400,7.436471435546875,9.648303985595703,6.252697944641113,-3.1179158687591553
1715114155865421300,7.44642138671875,6.214800834655762,4.623608589172363,-5.283084392547607
1715114155875371000,7.45637109375,-6.50572395324707,1.7931928634643555,-6.573201656341553
1715114155885321000,7.466321044921875,-25.324430465698242,-5.339848518371582,-7.260768413543701
1715114155895271000,7.47627099609375,-35.82568359375,-16.688304901123047,-4.969202041625977
1715114155905220900,7.486220947265625,-16.362394332885742,-19.20938491821289,-2.083862543106079
1715114155915170600,7.496170654296875,-6.8470845222473145,-14.662723541259766,0.10566270351409912
1715114155925120500,7.50612060546875,-8.179049491882324,-8.783543586730957,-0.33638179302215576
1715114155935070500,7.516070556640625,-7.258358955383301,-1.213038444519043,-0.8016887903213501
1715114155945020400,7.5260205078125,-4.627520561218262,4.134516716003418,-2.28558087348938
1715114155954970400,7.535970458984375,-2.452648639678955,6.968727111816406,-3.6168107986450195
1715114155964920000,7.545920166015625,-1.9694085121154785,7.37091588973999,-5.03057861328125
1715114155974870000,7.5558701171875,-1.986173152923584,4.723075866699219,-6.7614240646362305
1715114155984820000,7.565820068359375,0.8976705074310303,-0.4462242126464844,-8.00217342376709
1715114155994770000,7.57577001953125,8.852426528930664,-5.498685836791992,-7.765355110168457
1715114156004719600,7.5857197265625,15.620527267456055,-8.472392082214355,-5.750529766082764
1715114156014669600,7.595669677734375,12.921907424926758,-9.27343463897705,-2.4125075340270996
1715114156024619500,7.60561962890625,3.359415292739868,-8.777425765991211,2.9645254611968994
1715114156034569500,7.615569580078125,-3.508024215698242,-8.508203506469727,3.4515602588653564
1715114156044519400,7.62551953125,-0.7563228607177734,-5.510097503662109,-2.4597134590148926
1715114156054469000,7.63546923828125,1.6420245170593262,-1.510972023010254,-3.2816834449768066
1715114156064419000,7.645419189453125,4.392801761627197,1.6190075874328613,-3.634443521499634
1715114156074369000,7.655369140625,11.292216300964355,2.9711780548095703,-3.0476303100585938
1715114156084319000,7.665319091796875,16.991275787353516,2.304344654083252,-2.2889761924743652
1715114156094269000,7.67526904296875,16.539642333984375,1.2035655975341797,-1.8613364696502686
1715114156104219000,7.685218994140625,12.738590240478516,0.5610208511352539,-1.5385875701904297
1715114156114168800,7.6951689453125,9.42530632019043,0.10111236572265625,-1.8140740394592285
1715114156124118800,7.705118896484375,7.412239074707031,0.061652183532714844,-1.6168948411941528
1715114156134068700,7.71506884765625,5.263063430786133,0.34574222564697266,-0.6630071401596069
1715114156144018700,7.725018798828125,3.650038242340088,0.1096639633178711,-0.32648205757141113
1715114156153968600,7.73496875,2.8559303283691406,-0.5651464462280273,-0.6497728824615479
1715114156163918600,7.744918701171875,1.323513150215149,-1.3889331817626953,-0.220209002494812
1715114156173868500,7.75486865234375,1.503320574760437,-2.198759078979492,2.290950298309326
1715114156183818500,7.764818603515625,5.214226722717285,-2.6072330474853516,6.5598649978637695
1715114156193768400,7.7747685546875,7.197559833526611,-3.3961915969848633,9.784168243408203
1715114156203718400,7.784718505859375,7.311646938323975,-3.728205680847168,10.752104759216309
1715114156213668400,7.79466845703125,6.66666841506958,-3.413191795349121,11.14889907836914
1715114156223618300,7.804618408203125,0.7852053046226501,-1.9317731857299805,7.733057975769043
1715114156233568300,7.814568359375,-2.4867961406707764,-0.21036529541015625,4.909519672393799
1715114156243518200,7.824518310546875,-4.230988502502441,-0.28074073791503906,6.134579181671143
1715114156253468200,7.83446826171875,-7.021771430969238,-0.3738126754760742,6.074952602386475
1715114156263418000,7.844418212890625,-9.35788631439209,-0.0018014907836914062,4.832066535949707
1715114156273368000,7.8543681640625,-9.665648460388184,0.5890932083129883,1.9287017583847046
1715114156283318000,7.864318115234375,-7.254992485046387,0.7734346389770508,-1.6606810092926025
1715114156293268000,7.87426806640625,-4.364561557769775,0.8657302856445312,-3.4978506565093994
1715114156303218000,7.884218017578125,-2.7002997398376465,1.122528076171875,-4.350401401519775
1715114156313168000,7.89416796875,-2.28346848487854,1.4376869201660156,-4.19573450088501
1715114156323117800,7.904117919921875,-2.6894819736480713,1.8409743309020996,-3.3765954971313477
1715114156333067800,7.91406787109375,-3.8808858394622803,2.0823874473571777,-2.505141496658325
1715114156343017700,7.924017822265625,-6.951014518737793,1.9381508827209473,-3.257479429244995
1715114156352967700,7.9339677734375,-11.587594985961914,1.2175922393798828,-5.004537105560303
1715114156362917600,7.943917724609375,-11.335685729980469,0.42406654357910156,-4.265590190887451
1715114156372867600,7.95386767578125,-6.654860496520996,-0.12895774841308594,-1.7400496006011963
1715114156382817500,7.963817626953125,-2.6910393238067627,-0.6043338775634766,0.8331117630004883
1715114156392767500,7.973767578125,-1.0611169338226318,-1.1783437728881836,2.6273529529571533
1715114156402717400,7.983717529296875,-1.0352892875671387,-1.8798179626464844,3.6277990341186523
1715114156412667400,7.99366748046875,-2.2431626319885254,-2.514279365539551,4.098585605621338
1715114156422617300,8.003617431640626,-3.5127336978912354,-2.9001359939575195,4.3862624168396
1715114156432567300,8.0135673828125,-4.471571922302246,-2.981356620788574,5.079135417938232
1715114156442517200,8.023517333984374,-4.824641227722168,-2.8722400665283203,6.158871173858643
1715114156452467200,8.03346728515625,-4.521022319793701,-2.5709686279296875,6.944423675537109
1715114156462417200,8.043417236328125,-4.065892219543457,-2.48336124420166,7.245972156524658
1715114156472367000,8.0533671875,-3.9002461433410645,-2.763909339904785,7.514235973358154
1715114156482317000,8.063317138671875,-4.014469146728516,-3.3929548263549805,7.391352653503418
1715114156492267000,8.07326708984375,-4.588680267333984,-4.287473678588867,6.556033134460449
1715114156502217000,8.083217041015626,-5.797636985778809,-4.989091873168945,5.562450408935547
1715114156512167000,8.0931669921875,-7.221887588500977,-4.916297912597656,5.949387073516846
1715114156522116900,8.103116943359375,-7.139657974243164,-4.376034736633301,4.52673864364624
1715114156532066800,8.11306689453125,-6.0936384201049805,-3.90478515625,0.8734214305877686
1715114156542016800,8.123016845703125,-5.154575347900391,-3.6273841857910156,-1.4841374158859253
1715114156551966500,8.132966552734375,-3.324018955230713,-3.7659482955932617,-2.0565850734710693
1715114156561916400,8.14291650390625,-2.219750165939331,-4.149956703186035,-1.7441548109054565
1715114156571866400,8.152866455078126,-2.1944103240966797,-4.670273780822754,-1.022713303565979
1715114156581816300,8.16281640625,-1.5177717208862305,-5.520524024963379,-1.4973454475402832
1715114156591766000,8.17276611328125,0.5942189693450928,-6.863241195678711,-2.690657138824463
1715114156601716000,8.182716064453125,3.3690004348754883,-8.507198333740234,-3.7566938400268555
1715114156611666000,8.192666015625,5.988302707672119,-9.838467597961426,-4.348191261291504
1715114156621615900,8.202615966796875,7.814038276672363,-10.461442947387695,-4.22837495803833
1715114156631565800,8.21256591796875,8.497365951538086,-10.37519359588623,-3.327535629272461
1715114156641515500,8.222515625,9.285499572753906,-9.953857421875,-3.8313066959381104
1715114156651465500,8.232465576171874,10.140667915344238,-9.128222465515137,-6.849765300750732
1715114156661415400,8.24241552734375,9.563106536865234,-7.658137321472168,-9.654166221618652
1715114156671365400,8.252365478515625,2.1928157806396484,-4.679671287536621,-8.4528169631958
1715114156681315000,8.262315185546875,-11.029834747314453,-2.5980215072631836,-5.184669494628906
1715114156691265000,8.27226513671875,-7.36556339263916,-1.684859275817871,-5.122494697570801
1715114156701215000,8.282215087890625,-1.2729401588439941,-0.4027223587036133,-4.167995452880859
1715114156711165000,8.2921650390625,3.20607328414917,1.4068183898925781,-2.8765387535095215
1715114156721115000,8.302114990234376,5.795461177825928,3.244821071624756,-0.4068041145801544
1715114156731064600,8.312064697265624,7.700126647949219,4.381768226623535,0.596924901008606
1715114156741014500,8.3220146484375,9.14009952545166,5.194268226623535,2.2302427291870117
1715114156750964500,8.331964599609375,9.219624519348145,5.518581390380859,5.76115608215332
1715114156760914400,8.34191455078125,7.965712070465088,5.064085960388184,8.389301300048828
1715114156770864400,8.351864501953125,4.903071403503418,3.9162092208862305,9.567705154418945
1715114156780814000,8.36181396484375,2.6407690048217773,2.3176441192626953,8.8566312789917
1715114156790764000,8.371763916015626,3.920196056365967,1.8438053131103516,5.588533878326416
1715114156800714000,8.3817138671875,5.882711410522461,3.03765869140625,3.788529872894287
1715114156810664000,8.391663818359374,7.319673538208008,4.3176045417785645,3.0905284881591797
1715114156820613600,8.401613525390625,8.327442169189453,5.352267265319824,2.473184108734131
1715114156830563600,8.4115634765625,8.812850952148438,6.051571369171143,1.5847742557525635
1715114156840513500,8.421513427734375,9.175433158874512,6.714673042297363,0.8004745841026306
1715114156850463500,8.43146337890625,9.29456901550293,7.307065963745117,0.20791977643966675
1715114156860413400,8.441413330078126,9.374931335449219,7.949410915374756,-0.3756561279296875
1715114156870363100,8.451363037109376,9.752276420593262,8.118980407714844,-0.5887768268585205
1715114156880313000,8.46131298828125,10.078765869140625,7.891458034515381,-0.3987269401550293
1715114156890263000,8.471262939453124,10.626599311828613,7.563128471374512,-0.7673797607421875
1715114156900213000,8.481212890625,10.789180755615234,7.322874069213867,-1.2072392702102661
1715114156910162700,8.49116259765625,9.696271896362305,6.820340633392334,-2.14725399017334
1715114156920112600,8.501112548828125,6.434551239013672,5.569974899291992,-3.732907772064209
1715114156930062600,8.5110625,-6.830089569091797,2.706766128540039,-5.805420875549316
1715114156940012500,8.521012451171876,-24.443618774414062,-4.232641220092773,-7.113421440124512
1715114156949962500,8.53096240234375,-34.818050384521484,-15.18696117401123,-4.634942054748535
1715114156959912200,8.540912109375,-16.23443603515625,-18.166271209716797,-1.264085054397583
1715114156969862100,8.550862060546875,-2.937565326690674,-13.950849533081055,1.478952407836914
1715114156979812000,8.56081201171875,-3.605412483215332,-8.141826629638672,0.8258982300758362
1715114156989762000,8.570761962890625,-4.325615882873535,-1.3735685348510742,-1.2076464891433716
1715114156999711700,8.580711669921875,-3.4035773277282715,3.694520950317383,-4.2192769050598145
1715114157009661700,8.59066162109375,-3.6006531715393066,6.474596977233887,-6.656902313232422
1715114157019611600,8.600611572265626,-3.2015137672424316,7.163628101348877,-7.105591773986816
1715114157029561600,8.6105615234375,-2.7882771492004395,4.97620964050293,-7.996730804443359
1715114157039511600,8.620511474609375,-2.908395767211914,-0.8681478500366211,-10.729601860046387
1715114157049461200,8.630461181640625,0.9098114967346191,-6.865156173706055,-12.91753101348877
1715114157059411200,8.6404111328125,7.1890387535095215,-10.849725723266602,-12.24870777130127
1715114157069361200,8.650361083984375,8.506250381469727,-11.305582046508789,-7.173778533935547
1715114157079311000,8.66031103515625,6.223696231842041,-8.427762985229492,0.8154593706130981
1715114157089261000,8.670260986328126,8.28577709197998,-3.173459053039551,6.112573146820068
1715114157099211000,8.6802109375,10.610089302062988,0.5368833541870117,3.880581855773926
1715114157109161000,8.690160888671874,10.086570739746094,1.0621256828308105,0.9597890377044678
1715114157119111000,8.70011083984375,9.917804718017578,-0.5803079605102539,-2.574090003967285
1715114157129060900,8.710060791015625,9.964181900024414,-1.5792207717895508,-3.986205577850342
1715114157139010800,8.7200107421875,11.306196212768555,-1.932882308959961,-3.0032358169555664
1715114157148960800,8.729960693359375,12.708020210266113,-1.906895637512207,-1.4677969217300415
1715114157158910700,8.73991064453125,11.887114524841309,-2.0601987838745117,-1.098433256149292
1715114157168860700,8.749860595703124,9.519192695617676,-1.5924453735351562,-0.2053682804107666
1715114157178810600,8.759810546875,7.5898542404174805,-0.9554500579833984,0.37112855911254883
1715114157188760600,8.769760498046875,6.63347864151001,-0.32266998291015625,1.2114794254302979
1715114157198710500,8.77971044921875,4.693092346191406,-0.06998825073242188,1.9306108951568604
1715114157208660500,8.789660400390625,2.549891948699951,-0.4634742736816406,1.5161129236221313
1715114157218610200,8.799610107421875,0.8383710384368896,-1.6349334716796875,1.2172601222991943
1715114157228560100,8.80956005859375,0.058359742164611816,-2.9857921600341797,2.6275510787963867
1715114157238510000,8.819510009765626,1.7920804023742676,-3.451756477355957,6.052892684936523
1715114157248460000,8.8294599609375,4.006409168243408,-3.7439498901367188,9.415200233459473
1715114157258410000,8.839409912109375,5.058797359466553,-3.7010746002197266,11.705275535583496
1715114157268360000,8.84935986328125,0.5132896900177002,-2.5882225036621094,10.796623229980469
1715114157278310000,8.859309814453125,-0.4756782650947571,-1.0803155899047852,8.714895248413086
1715114157288259800,8.869259765625,-0.4172522723674774,-0.29363155364990234,8.828782081604004
1715114157298209800,8.879209716796876,-2.9207828044891357,0.1812887191772461,8.227396011352539
1715114157308159700,8.88915966796875,-5.753150463104248,0.9253139495849609,5.976267337799072
1715114157318109700,8.899109619140624,-6.645085334777832,1.710494041442871,3.6115128993988037
1715114157328059600,8.9090595703125,-5.565555572509766,2.332812786102295,1.7216531038284302
1715114157338009600,8.919009521484375,-3.872789144515991,2.4120144844055176,-0.2930372953414917
1715114157347959600,8.92895947265625,-1.9423425197601318,2.1405673027038574,-2.248903751373291
1715114157357909500,8.938909423828125,-0.513441801071167,1.7750444412231445,-3.7728452682495117
1715114157367859500,8.948859375,-0.4337671995162964,1.6432485580444336,-4.151544570922852
1715114157377809400,8.958809326171876,-1.0457079410552979,1.6348686218261719,-3.3142449855804443
1715114157387759400,8.96875927734375,-2.156891107559204,2.021209239959717,-0.8216508626937866
1715114157397709300,8.978709228515624,-2.6577532291412354,2.085573673248291,-0.8311680555343628
1715114157407659300,8.9886591796875,-2.6437151432037354,1.5594139099121094,-3.782762050628662
1715114157417609200,8.998609130859375,-7.322742462158203,1.0916833877563477,-6.485904216766357
1715114157427559200,9.00855908203125,-12.387908935546875,0.24914073944091797,-7.446950435638428
1715114157437509000,9.018509033203125,-10.48557186126709,-0.3071002960205078,-4.988554954528809
1715114157447459000,9.028458984375,-6.00697135925293,-0.6740360260009766,-2.124788284301758
1715114157457409000,9.038408935546874,-3.1929023265838623,-1.556100845336914,-0.4977133870124817
1715114157467359000,9.04835888671875,-2.599806547164917,-2.535943031311035,0.7928093671798706
1715114157477309000,9.058308837890625,-2.81156849861145,-3.5019187927246094,2.7945868968963623
1715114157487259000,9.0682587890625,-2.9943017959594727,-4.340973854064941,5.398778915405273
1715114157497208800,9.078208740234375,-3.88386607170105,-4.713891983032227,7.5941267013549805
1715114157507158500,9.088158447265625,-4.551461219787598,-4.632652282714844,8.56448745727539
1715114157517108500,9.0981083984375,-4.488383769989014,-4.276638984680176,8.909046173095703
1715114157527058400,9.108058349609376,-4.003430366516113,-3.856135368347168,8.949101448059082
1715114157537008400,9.11800830078125,-3.758235216140747,-3.7188053131103516,9.114462852478027
1715114157546958300,9.127958251953125,-4.327576637268066,-4.137529373168945,8.581155776977539
1715114157556908000,9.137907958984375,-5.050685882568359,-4.503771781921387,7.1064019203186035
1715114157566858000,9.14785791015625,-5.550299644470215,-4.748965263366699,5.5783562660217285
1715114157576808000,9.157807861328125,-6.2140302658081055,-4.087186813354492,6.044511318206787
1715114157586758000,9.1677578125,-5.917536735534668,-3.3964405059814453,5.253500938415527
1715114157596707600,9.17770751953125,-5.17732572555542,-3.5284900665283203,2.3459818363189697
1715114157606657500,9.187657470703124,-5.332405090332031,-3.811124801635742,0.05733537673950195
1715114157616607500,9.197607421875,-5.159765720367432,-3.954409599304199,-1.145026445388794
1715114157626557400,9.207557373046875,-4.384371757507324,-3.9765424728393555,-2.1091039180755615
1715114157636507400,9.21750732421875,-3.5050601959228516,-3.686697006225586,-2.5315370559692383
1715114157646457000,9.22745703125,-2.3718955516815186,-3.7400665283203125,-2.836113929748535
1715114157656407000,9.237406982421875,-0.6465558409690857,-4.307453155517578,-2.933610200881958
1715114157666357000,9.24735693359375,0.8262927532196045,-5.428754806518555,-3.0556483268737793
1715114157676307000,9.257306884765624,1.9995622634887695,-6.81743049621582,-3.1299455165863037
1715114157686256600,9.267256591796874,3.721641778945923,-8.058520317077637,-2.9473226070404053
1715114157696206600,9.27720654296875,6.036449909210205,-8.991040229797363,-2.256791114807129
1715114157706156500,9.287156494140625,8.12530517578125,-9.667332649230957,-2.7658915519714355
1715114157716106500,9.2971064453125,10.03068733215332,-10.123295783996582,-4.599300861358643
1715114157726056400,9.307056396484375,10.953773498535156,-9.816082954406738,-6.926868438720703
1715114157736006100,9.317006103515626,10.424781799316406,-8.280542373657227,-8.054454803466797
1715114157745956000,9.3269560546875,2.216073751449585,-5.135951995849609,-4.867851257324219
1715114157755906000,9.336906005859374,-9.0673828125,-3.4569578170776367,-1.7473950386047363
1715114157765856000,9.34685595703125,-6.368801593780518,-2.191802978515625,-2.583749532699585
1715114157775805700,9.3568056640625,-2.2755186557769775,-0.5627365112304688,-1.634966492652893
1715114157785755600,9.366755615234375,1.4902760982513428,1.277627944946289,-0.3029186427593231
1715114157795705600,9.37670556640625,6.035063743591309,3.3108606338500977,2.191612958908081
1715114157805655600,9.386655517578125,8.974254608154297,3.789299488067627,3.412949323654175
1715114157815605500,9.39660546875,8.095405578613281,3.9549660682678223,5.003221035003662
1715114157825555200,9.40655517578125,6.3397088050842285,3.8289055824279785,7.121774673461914
1715114157835505200,9.416505126953124,5.532967567443848,2.8426384925842285,8.324663162231445
1715114157845455000,9.426455078125,4.309817314147949,1.9067277908325195,8.168990135192871
1715114157855405000,9.436405029296875,4.142610549926758,1.686389446258545,6.785488605499268
1715114157865355000,9.44635498046875,5.07974100112915,2.173564910888672,5.559274673461914
1715114157875304700,9.4563046875,6.367932319641113,3.037978172302246,4.305229187011719
1715114157885254700,9.466254638671876,8.111494064331055,3.7335710525512695,3.3247628211975098
1715114157895204600,9.47620458984375,10.243475914001465,4.488471031188965,2.5265047550201416
1715114157905154600,9.486154541015624,12.09412670135498,5.451694488525391,1.2986270189285278
1715114157915104300,9.496104248046874,13.407266616821289,6.377325057983398,0.1814209222793579
1715114157925054200,9.50605419921875,13.798210144042969,7.219799995422363,-0.3794773817062378
1715114157935004200,9.516004150390625,13.048995971679688,8.08741283416748,-0.8469016551971436
1715114157944954000,9.5259541015625,11.353172302246094,8.440821647644043,-1.710442066192627
1715114157954904000,9.535904052734375,10.774611473083496,8.89762020111084,-2.6351370811462402
1715114157964853800,9.545853759765626,11.120967864990234,9.288466453552246,-2.8172616958618164
1715114157974803700,9.5558037109375,11.141363143920898,8.985689163208008,-2.3518314361572266
1715114157984753700,9.565753662109374,11.507926940917969,7.988269329071045,-1.5365382432937622
1715114157994703600,9.57570361328125,8.119061470031738,5.954064846038818,-4.138312339782715
1715114158004653300,9.5856533203125,-7.451040744781494,2.366410732269287,-9.271783828735352
1715114158014603300,9.595603271484375,-33.26094436645508,-6.18388557434082,-14.150198936462402
1715114158024553200,9.60555322265625,-41.31851577758789,-19.479270935058594,-7.506308078765869
1715114158034503200,9.615503173828126,-11.769020080566406,-21.182903289794922,-2.062199354171753
1715114158044453000,9.625453125,-6.687866687774658,-16.115642547607422,0.016146540641784668
1715114158054402800,9.63540283203125,-9.20160961151123,-8.667019844055176,0.6037447452545166
1715114158064352800,9.645352783203125,-6.333446502685547,-0.37097740173339844,0.4694291353225708
1715114158074302700,9.655302734375,-2.390547752380371,5.487032890319824,-0.5859969854354858
1715114158084252700,9.665252685546875,-0.16802692413330078,8.616599082946777,-1.784839391708374
1715114158094202400,9.675202392578125,-0.7778005599975586,7.118008136749268,-3.7544026374816895
1715114158104152300,9.68515234375,1.3443286418914795,0.858278751373291,-6.449549674987793
1715114158114102300,9.695102294921876,10.379186630249023,-6.5187835693359375,-7.720525741577148
1715114158124052200,9.70505224609375,16.60901641845703,-10.894072532653809,-5.826028823852539
1715114158134002200,9.715002197265624,10.248334884643555,-11.895726203918457,-2.0236310958862305
1715114158143952100,9.7249521484375,-1.0125117301940918,-9.684500694274902,3.2968125343322754
1715114158153902000,9.734902099609375,-1.4482312202453613,-5.276883125305176,2.5654423236846924
1715114158163852000,9.74485205078125,2.381803512573242,-0.8181886672973633,-1.365861415863037
1715114158173802000,9.754802001953125,3.3297295570373535,1.7312536239624023,-2.593623638153076
1715114158183752000,9.764751953125,5.5478715896606445,1.2978692054748535,-4.983713150024414
1715114158193702000,9.774701904296874,11.983766555786133,-0.21165943145751953,-6.215914726257324
1715114158203651800,9.78465185546875,15.721525192260742,-0.8077898025512695,-4.025228977203369
1715114158213601800,9.794601806640625,15.714375495910645,-1.0505390167236328,-1.779333233833313
1715114158223551700,9.8045517578125,13.557169914245605,-1.134974479675293,-1.3202511072158813
1715114158233501700,9.814501708984375,10.266197204589844,-0.40743350982666016,-0.6095396280288696
1715114158243451600,9.82445166015625,8.524626731872559,0.09407615661621094,0.09049689769744873
1715114158253401600,9.834401611328126,7.497624397277832,0.11670875549316406,0.23485612869262695
1715114158263351600,9.8443515625,5.681673526763916,-0.11364936828613281,0.5770750045776367
1715114158273301500,9.854301513671874,2.933128833770752,-0.8278789520263672,0.9553995728492737
1715114158283251500,9.86425146484375,1.2925704717636108,-2.56935977935791,1.7891504764556885
1715114158293201400,9.874201416015625,1.5972896814346313,-4.645647048950195,4.438460350036621
1715114158303151400,9.8841513671875,3.5348334312438965,-4.981541633605957,7.4949774742126465
1715114158313101300,9.894101318359375,4.497443199157715,-4.922253608703613,9.058235168457031
1715114158323051300,9.90405126953125,1.1698060035705566,-3.862807273864746,8.855768203735352
1715114158333001200,9.914001220703126,-3.2111053466796875,-1.8361139297485352,7.562962532043457
1715114158342951200,9.923951171875,-1.172015905380249,-0.3578214645385742,9.362789154052734
1715114158352901000,9.933901123046875,-1.585837960243225,0.6439266204833984,9.090559005737305
1715114158362851000,9.94385107421875,-4.393086910247803,1.0667657852172852,6.91839599609375
1715114158372801000,9.953801025390625,-6.409196853637695,1.6568536758422852,4.982514381408691
1715114158382751000,9.9637509765625,-6.231687545776367,2.358609676361084,2.186763286590576
1715114158392701000,9.973700927734376,-4.6183061599731445,2.8431005477905273,-0.04633760452270508
1715114158402651000,9.98365087890625,-2.5360658168792725,2.9972987174987793,-1.6788638830184937
1715114158412600800,9.993600830078124,-0.8486462831497192,2.6928625106811523,-2.531404972076416
1715114158422550800,10.00355078125,0.0005248785018920898,2.427212715148926,-3.167835235595703
1715114158432500700,10.013500732421875,0.17877113819122314,2.3569774627685547,-3.413158416748047
1715114158442450700,10.02345068359375,-0.7963298559188843,2.423797607421875,-1.6855363845825195
1715114158452400600,10.033400634765625,-1.6853177547454834,1.7366375923156738,-1.466246247291565
1715114158462350600,10.0433505859375,-1.371706247329712,0.689910888671875,-3.4504008293151855
1715114158472300500,10.053300537109376,-2.900278329849243,-0.09017753601074219,-4.259963512420654
1715114158482250500,10.06325048828125,-13.182233810424805,-0.7821226119995117,-5.307257652282715
1715114158492200400,10.073200439453124,-16.261402130126953,-1.2160377502441406,-3.875365972518921
1715114158502150400,10.083150390625,-9.058191299438477,-0.9833917617797852,-1.2910271883010864
1715114158512100000,10.09310009765625,-2.9632537364959717,-1.4031686782836914,0.532226026058197
1715114158522050000,10.103050048828125,-0.4088883399963379,-2.4936695098876953,3.0282583236694336
1715114158532000000,10.113,-0.9367220401763916,-3.760683059692383,6.5153679847717285
1715114158541950000,10.122949951171876,-2.390230178833008,-4.637927055358887,8.819064140319824
1715114158551900000,10.13289990234375,-3.4622933864593506,-4.9969377517700195,9.340205192565918
1715114158561849600,10.142849609375,-3.985783338546753,-5.369057655334473,9.021270751953125
1715114158571799600,10.152799560546875,-4.195093154907227,-5.508840560913086,8.338088989257812
1715114158581749500,10.16274951171875,-5.094972133636475,-5.479887962341309,7.291505813598633
1715114158591699500,10.172699462890625,-5.9435272216796875,-5.472039222717285,6.562375068664551
1715114158601649200,10.182649169921875,-6.195188045501709,-5.450418472290039,6.594961643218994
1715114158611599000,10.19259912109375,-5.743336200714111,-5.304222106933594,7.096449375152588
1715114158621549000,10.202549072265626,-4.4051289558410645,-5.188979148864746,8.190980911254883
1715114158631499000,10.2124990234375,-3.195631504058838,-4.938858985900879,7.113777160644531
1715114158641449000,10.222448974609375,-3.5807785987854004,-3.9714536666870117,3.3378052711486816
1715114158651398700,10.232398681640625,-5.417899131774902,-3.2391138076782227,0.0338137149810791
1715114158661348600,10.2423486328125,-5.947591781616211,-3.0856847763061523,-1.5761783123016357
1715114158671298600,10.252298583984375,-3.846862554550171,-2.9375905990600586,-2.1414685249328613
1715114158681248500,10.26224853515625,-2.008753538131714,-2.9643096923828125,-2.147758960723877
1715114158691198200,10.2721982421875,-0.9479049444198608,-3.584728240966797,-2.047178030014038
1715114158701148200,10.282148193359374,0.4118441343307495,-5.029184341430664,-2.8603410720825195
1715114158711098000,10.29209814453125,2.280397891998291,-6.896890640258789,-3.7309205532073975
1715114158721048000,10.302048095703125,3.9326677322387695,-8.64764404296875,-3.751239061355591
1715114158730998000,10.311998046875,5.168972492218018,-9.586771965026855,-3.069735050201416
1715114158740947700,10.32194775390625,7.723119258880615,-10.010763168334961,-4.550887584686279
1715114158750897700,10.331897705078125,10.312597274780273,-9.76932144165039,-7.4352569580078125
1715114158760847600,10.34184765625,10.887018203735352,-8.309565544128418,-8.990488052368164
1715114158770797600,10.351797607421876,8.59931755065918,-6.018594741821289,-7.934948921203613
1715114158780747300,10.361747314453124,2.4914917945861816,-3.646794319152832,-5.578682899475098
1715114158790697200,10.371697265625,-8.228172302246094,-2.6035842895507812,-3.460857391357422
1715114158800647200,10.381647216796875,-5.983152389526367,-1.9605846405029297,-3.917996644973755
1715114158810597000,10.39159716796875,-1.3136732578277588,-0.7736988067626953,-2.1897013187408447
1715114158820547000,10.401547119140625,1.951424241065979,0.7097225189208984,-0.2952890992164612
1715114158830496800,10.411496826171875,4.437319755554199,2.1616663932800293,0.5433698892593384
1715114158840446700,10.42144677734375,7.247012138366699,3.2521066665649414,0.31776872277259827
1715114158850396700,10.431396728515624,9.805604934692383,4.364377021789551,1.6936970949172974
1715114158860346600,10.4413466796875,9.995312690734863,4.960602760314941,5.460354804992676
1715114158870296300,10.45129638671875,8.066282272338867,4.175581932067871,7.656353950500488
1715114158880246300,10.461246337890625,5.1029253005981445,3.364408016204834,9.242783546447754
1715114158890196200,10.4711962890625,3.253185272216797,2.0844945907592773,8.870696067810059
1715114158900146200,10.481146240234375,3.88234806060791,1.6518406867980957,6.265746116638184
1715114158910096100,10.49109619140625,5.543702602386475,2.589789390563965,4.149303913116455
1715114158920045800,10.5010458984375,6.934417724609375,3.9381675720214844,2.794964551925659
1715114158929995800,10.510995849609374,8.119388580322266,5.210259914398193,2.131178855895996
1715114158939945700,10.52094580078125,9.00715446472168,6.23349666595459,1.4192094802856445
1715114158949895700,10.530895751953125,9.669215202331543,7.093986511230469,0.6053916215896606
1715114158959845600,10.540845703125,9.814477920532227,7.705521106719971,0.4661597013473511
1715114158969795300,10.55079541015625,10.204030990600586,8.089092254638672,0.04451858997344971
1715114158979745300,10.560745361328125,10.536314010620117,7.900755405426025,-0.44868242740631104
1715114158989695200,10.5706953125,10.051963806152344,7.304433822631836,-0.6926624774932861
1715114158999645200,10.580645263671874,9.362876892089844,6.550128936767578,-1.0018408298492432
1715114159009595000,10.590594970703124,9.394203186035156,6.222777366638184,-0.7858278751373291
1715114159019544800,10.600544921875,9.064559936523438,5.8982768058776855,-1.4504022598266602
1715114159029494800,10.610494873046875,7.533616065979004,5.492608070373535,-2.789632797241211
1715114159039444700,10.62044482421875,0.8529856204986572,4.126347064971924,-3.7000765800476074
1715114159049394700,10.630394775390625,-15.303630828857422,-0.27975940704345703,-4.979621887207031
1715114159059344600,10.6403447265625,-27.66303253173828,-8.68111801147461,-6.557280540466309
1715114159069294600,10.650294677734376,-26.487131118774414,-16.17361068725586,-5.9605512619018555
1715114159079244500,10.66024462890625,-10.681585311889648,-16.037628173828125,0.5311285257339478
1715114159089194500,10.670194580078125,-5.369575023651123,-12.274544715881348,2.395695686340332
1715114159099144400,10.68014453125,-4.9299397468566895,-6.328027725219727,2.4600088596343994
1715114159109094400,10.690094482421875,-3.5521130561828613,-0.26374340057373047,0.4301873445510864
1715114159119044400,10.70004443359375,-1.7544641494750977,3.824748992919922,-2.621238946914673
1715114159128994300,10.709994384765626,0.11470746994018555,6.506699562072754,-4.4561052322387695
1715114159138944300,10.7199443359375,-0.5069522857666016,7.942861080169678,-5.099281311035156
1715114159148894200,10.729894287109374,-0.8881106376647949,6.33387565612793,-5.947277069091797
1715114159158844200,10.73984423828125,0.960308313369751,0.4270620346069336,-7.966893672943115
1715114159168794000,10.749794189453125,8.884902000427246,-6.510225296020508,-10.78359317779541
1715114159178744000,10.759744140625,14.726337432861328,-10.972517967224121,-9.513001441955566
1715114159188694000,10.769694091796875,9.975351333618164,-11.859977722167969,-4.624164581298828
1715114159198644000,10.77964404296875,-0.4422931671142578,-11.2052583694458,1.7615854740142822
1715114159208593700,10.78959375,-5.021801471710205,-9.57061767578125,1.768054485321045
1715114159218543600,10.799543701171874,0.7790274620056152,-3.8345565795898438,-0.40706539154052734
1715114159228493600,10.80949365234375,3.8510169982910156,1.377225399017334,-1.0234531164169312
1715114159238443500,10.819443603515625,4.776119709014893,4.0824294090271,-2.4346320629119873
1715114159248393500,10.8293935546875,9.421276092529297,3.553689479827881,-4.216772079467773
1715114159258343400,10.839343505859375,14.461623191833496,1.6736392974853516,-4.231352806091309
1715114159268293400,10.84929345703125,15.39945125579834,-0.06301689147949219,-3.358337879180908
1715114159278243300,10.859243408203126,14.32376766204834,-0.47677135467529297,-1.775478482246399
1715114159288193300,10.869193359375,11.94651985168457,-0.24325180053710938,-0.5482486486434937
1715114159298143200,10.879143310546874,9.131752967834473,-0.17568397521972656,-0.800269365310669
1715114159308093200,10.88909326171875,6.515442848205566,0.07304096221923828,-0.5399081707000732
1715114159318043100,10.899043212890625,3.9327361583709717,0.3053302764892578,0.18286025524139404
1715114159327993000,10.9089931640625,1.3850891590118408,0.03567981719970703,0.41565263271331787
1715114159337943000,10.918943115234375,-0.8046754598617554,-1.4011707305908203,0.4385867118835449
1715114159347893000,10.92889306640625,-1.5603289604187012,-2.92726993560791,1.86594557762146
1715114159357843000,10.938843017578124,1.625455617904663,-3.3395118713378906,5.949522018432617
1715114159367793000,10.94879296875,4.817580699920654,-3.6811676025390625,9.470968246459961
1715114159377742800,10.958742919921875,5.518245697021484,-3.6958799362182617,10.520058631896973
1715114159387692800,10.96869287109375,1.4597859382629395,-2.5100812911987305,9.139628410339355
1715114159397642800,10.978642822265625,0.6488459706306458,-0.6197881698608398,8.349510192871094
1715114159407592700,10.9885927734375,0.33839112520217896,0.24294376373291016,9.0808687210083
1715114159417542700,10.998542724609376,-2.0348920822143555,0.40785789489746094,7.918190002441406
1715114159427492600,11.00849267578125,-4.313782215118408,0.899083137512207,5.979267597198486
1715114159437442600,11.018442626953124,-5.024968147277832,1.6221637725830078,3.8537042140960693
1715114159447392500,11.028392578125,-4.420113563537598,2.228344440460205,1.4988946914672852
1715114159457342500,11.038342529296875,-3.7794601917266846,2.1889147758483887,-0.5447293519973755
1715114159467292400,11.04829248046875,-2.674649238586426,1.8317022323608398,-2.0808520317077637
1715114159477242400,11.058242431640625,-1.27400803565979,1.390380859375,-3.426804780960083
1715114159487192300,11.0681923828125,-0.280254602432251,1.0969781875610352,-4.295090675354004
1715114159497142300,11.078142333984376,-1.229865550994873,0.9626617431640625,-3.416041374206543
1715114159507092200,11.08809228515625,-3.833641529083252,0.8933439254760742,-4.7118072509765625
1715114159517042200,11.098042236328125,-9.859759330749512,0.6531333923339844,-9.80630111694336
1715114159526992100,11.1079921875,-13.674009323120117,0.26018810272216797,-12.05410099029541
1715114159536942000,11.117942138671875,-9.545762062072754,0.5985832214355469,-8.417154312133789
1715114159546891800,11.127891845703125,-4.1421613693237305,1.2099113464355469,-4.218137264251709
1715114159556841700,11.137841796875,-0.9703447818756104,0.6487951278686523,-1.2182649374008179
1715114159566791700,11.147791748046876,-0.5471138954162598,-0.561802864074707,0.8380993604660034
1715114159576741600,11.15774169921875,-2.1916561126708984,-1.8593082427978516,2.5992355346679688
1715114159586691300,11.16769140625,-4.259838104248047,-3.197481155395508,4.060107707977295
1715114159596641300,11.177641357421875,-5.383069038391113,-4.419669151306152,5.362033843994141
1715114159606591200,11.18759130859375,-5.427363395690918,-5.071046829223633,7.19912576675415
1715114159616541200,11.197541259765625,-4.686129570007324,-5.108822822570801,9.210457801818848
1715114159626491100,11.2074912109375,-3.779237747192383,-4.877874374389648,10.28844928741455
1715114159636440800,11.21744091796875,-2.78851318359375,-4.529753684997559,10.513106346130371
1715114159646390800,11.227390869140624,-2.284290313720703,-4.382438659667969,10.24236011505127
1715114159656340700,11.2373408203125,-2.768688917160034,-4.280717849731445,9.318222045898438
1715114159666290700,11.247290771484375,-3.638637065887451,-4.084866523742676,8.149076461791992
1715114159676240400,11.257240478515625,-4.368740081787109,-3.7005701065063477,7.264812469482422
1715114159686190300,11.2671904296875,-5.0884199142456055,-3.0198068618774414,7.610134124755859
1715114159696140300,11.277140380859375,-5.626656532287598,-2.9719581604003906,5.278804302215576
1715114159706090200,11.28709033203125,-6.109395980834961,-3.4740171432495117,1.2927403450012207
1715114159716040200,11.297040283203126,-6.637542724609375,-3.766575813293457,-1.7719861268997192
1715114159725990000,11.306989990234374,-6.50893497467041,-4.348099708557129,-3.218838930130005
1715114159735939800,11.31693994140625,-4.894918918609619,-4.437851905822754,-3.2263598442077637
1715114159745889800,11.326889892578125,-2.6964471340179443,-4.12007999420166,-2.5567729473114014
1715114159755839700,11.33683984375,-0.8800901174545288,-4.270698547363281,-1.776799201965332
1715114159765789700,11.346789794921875,0.9132570028305054,-4.667425155639648,-1.671986699104309
1715114159775739400,11.356739501953125,2.6288979053497314,-5.622223854064941,-2.111696243286133
1715114159785689300,11.366689453125,4.050271987915039,-6.87667179107666,-2.6259069442749023
1715114159795639300,11.376639404296874,5.269649982452393,-7.75698184967041,-2.920520305633545
1715114159805589200,11.38658935546875,6.397768020629883,-8.441156387329102,-3.315084457397461
1715114159815539000,11.3965390625,7.432892799377441,-9.01550006866455,-4.001593589782715
1715114159825489000,11.406489013671875,8.54140853881836,-9.306748390197754,-5.039694786071777
1715114159835438800,11.41643896484375,9.367387771606445,-8.573099136352539,-6.8770880699157715
1715114159845388800,11.426388916015625,4.86698055267334,-6.351463317871094,-7.074940204620361
1715114159855338800,11.4363388671875,-8.19766616821289,-4.336065292358398,-4.527740955352783
1715114159865288400,11.446288330078126,-7.084100723266602,-3.0182666778564453,-4.419528484344482
1715114159875238400,11.45623828125,-2.1777000427246094,-1.2291622161865234,-2.7881481647491455
1715114159885188400,11.466188232421874,1.5542287826538086,1.040919303894043,-0.7527061104774475
1715114159895138300,11.47613818359375,5.585392951965332,2.770512580871582,0.6415639519691467
1715114159905088000,11.486087890625,8.940631866455078,4.08584451675415,2.149380922317505
1715114159915038000,11.496037841796875,9.428651809692383,4.583154201507568,3.9582602977752686
1715114159924988000,11.50598779296875,8.569860458374023,4.835153102874756,5.77350378036499
1715114159934937900,11.515937744140626,7.422532558441162,4.621708393096924,7.432344436645508
1715114159944887800,11.5258876953125,5.862377643585205,3.778454303741455,8.782848358154297
1715114159954837500,11.53583740234375,3.6387219429016113,2.637294292449951,8.112330436706543
1715114159964787500,11.545787353515625,3.6231915950775146,2.1150693893432617,6.571331977844238
1715114159974737400,11.5557373046875,5.294386863708496,2.5228705406188965,4.870068550109863
1715114159984687400,11.565687255859375,7.557770252227783,3.143892765045166,3.3915820121765137
1715114159994637000,11.575636962890625,9.501052856445312,3.7463808059692383,2.3619041442871094
1715114160004587000,11.5855869140625,10.5232572555542,4.346495628356934,1.2711505889892578
1715114160014537000,11.595536865234376,11.015586853027344,4.930395603179932,0.24218279123306274
1715114160024487000,11.60548681640625,11.335323333740234,5.624670028686523,-0.4690333604812622
1715114160034436900,11.615436767578124,11.398736953735352,6.174145698547363,-0.9643906354904175
1715114160044386600,11.625386474609375,11.048322677612305,6.735305309295654,-0.9746276140213013
1715114160054336500,11.63533642578125,10.187919616699219,6.864724636077881,-1.2145414352416992
1715114160064286500,11.645286376953125,10.034782409667969,6.9356207847595215,-1.7855844497680664
1715114160074236400,11.655236328125,10.7254056930542,7.046520233154297,-1.7687393426895142
1715114160084186400,11.665186279296876,11.033923149108887,6.906643390655518,-2.3629088401794434
1715114160094136300,11.67513623046875,9.359336853027344,6.058111667633057,-4.044379711151123
1715114160104086300,11.685086181640624,3.0230016708374023,4.022511959075928,-5.926506996154785
1715114160114036200,11.6950361328125,-16.720428466796875,-0.27277374267578125,-8.366874694824219
1715114160123986200,11.704986083984375,-34.980472564697266,-9.549123764038086,-8.55698013305664
1715114160133936000,11.71493603515625,-27.989776611328125,-17.949066162109375,-5.155144214630127
1715114160143886000,11.724885986328125,-7.467214584350586,-15.357584953308105,0.16400587558746338
1715114160153836000,11.7348359375,-6.639305114746094,-10.610042572021484,2.2209928035736084
1715114160163786000,11.744785888671874,-7.102402687072754,-4.32015323638916,1.8735251426696777
1715114160173736000,11.75473583984375,-4.908445358276367,1.3477816581726074,0.36947548389434814
1715114160183686000,11.764685791015625,-2.482600688934326,4.848626136779785,-1.3349577188491821
1715114160193635800,11.7746357421875,-1.871471881866455,6.074222564697266,-3.662454605102539
1715114160203585800,11.784585693359375,-2.52085018157959,3.4691901206970215,-6.908636093139648
1715114160213535700,11.79453564453125,0.5481874942779541,-2.230353355407715,-9.309287071228027
1715114160223485700,11.804485595703126,7.7354559898376465,-7.8092041015625,-11.337862014770508
1715114160233435600,11.814435546875,11.738332748413086,-9.876228332519531,-9.627897262573242
1715114160243385600,11.824385498046874,6.667435646057129,-8.63319206237793,-5.312483310699463
1715114160253335600,11.83433544921875,1.4046666622161865,-6.02695369720459,-0.8304328918457031
1715114160263285500,11.844285400390625,1.5426850318908691,-2.7154293060302734,-0.6779087781906128
1715114160273235500,11.8542353515625,3.243946075439453,0.3154144287109375,-1.6686362028121948
1715114160283185400,11.864185302734375,4.174438953399658,1.321423053741455,-2.024024486541748
1715114160293135400,11.87413525390625,7.354403495788574,0.20068645477294922,-2.9752988815307617
1715114160303085300,11.884085205078126,12.71969985961914,-0.6386518478393555,-1.731115698814392
1715114160313035300,11.89403515625,16.195261001586914,-0.5318117141723633,0.8807281255722046
1715114160322985200,11.903985107421875,14.98006534576416,-0.6614742279052734,1.0414392948150635
1715114160332935200,11.91393505859375,12.536161422729492,-0.6643457412719727,0.6710498332977295
1715114160342885000,11.923885009765625,9.603199005126953,-0.5161046981811523,0.4536702632904053
1715114160352835000,11.9338349609375,6.2853851318359375,-0.5821151733398438,-0.33683884143829346
1715114160362785000,11.943784912109376,3.397426128387451,-0.4111614227294922,0.01583409309387207
1715114160372735000,11.95373486328125,0.9699851274490356,-0.9344444274902344,0.46892595291137695
1715114160382685000,11.963684814453124,-0.23586654663085938,-2.4774293899536133,1.2290841341018677
1715114160392635000,11.973634765625,1.175389051437378,-3.65932559967041,3.317345380783081
1715114160402584800,11.983584716796875,4.878377437591553,-3.6938934326171875,7.292166233062744
1715114160412534800,11.99353466796875,7.133571624755859,-3.6753129959106445,10.50555419921875
1715114160422484700,12.003484619140625,8.234177589416504,-3.5221128463745117,12.610471725463867
1715114160432434700,12.0134345703125,7.652806282043457,-3.0468063354492188,12.938031196594238
1715114160442384600,12.023384521484376,2.8970890045166016,-0.9801092147827148,8.334356307983398
1715114160452334600,12.03333447265625,-1.150988221168518,0.7321262359619141,4.85510778427124
1715114160462284500,12.043284423828124,-4.9668731689453125,0.7296352386474609,4.234530925750732
1715114160472234500,12.053234375,-8.309479713439941,1.0723390579223633,3.2430553436279297
1715114160482184400,12.063184326171875,-9.869248390197754,1.6042861938476562,2.6395795345306396
1715114160492134400,12.073134521484375,-9.044758796691895,2.1531291007995605,1.1580456495285034
1715114160502084400,12.08308447265625,-6.526760578155518,2.1183924674987793,-2.0164480209350586
1715114160512034000,12.093033935546876,-3.7980713844299316,1.4286766052246094,-4.374608039855957
1715114160521984000,12.10298388671875,-1.4628064632415771,1.1831226348876953,-4.947831153869629
1715114160531934000,12.112933837890624,0.1774294376373291,1.7613906860351562,-4.64378547668457
1715114160541884000,12.1228837890625,-0.10794234275817871,2.2582106590270996,-3.499128580093384
1715114160551833900,12.132833740234375,-1.1262054443359375,2.73968505859375,-1.7062536478042603
1715114160561783600,12.142783447265625,-1.2726150751113892,2.7139339447021484,-2.894103765487671
1715114160571733500,12.1527333984375,-1.4338780641555786,2.0731968879699707,-4.295119762420654
1715114160581683500,12.162683349609376,-3.7725911140441895,1.2442779541015625,-4.654845714569092
1715114160591633400,12.17263330078125,-11.266128540039062,-0.22623252868652344,-4.878085136413574
1715114160601583000,12.1825830078125,-11.845830917358398,-1.2997493743896484,-3.5071237087249756
1715114160611533000,12.192532958984375,-7.156834602355957,-1.6663408279418945,-1.432013750076294
1715114160621483000,12.20248291015625,-3.69630765914917,-2.08828067779541,0.12443685531616211
1715114160631433000,12.212432861328125,-2.417644739151001,-2.6058788299560547,1.6195647716522217
1715114160641383000,12.2223828125,-2.3098864555358887,-3.101241111755371,3.4434359073638916
1715114160651332600,12.23233251953125,-2.7150516510009766,-3.405714988708496,5.022909164428711
1715114160661282600,12.242282470703126,-3.3915064334869385,-3.4351377487182617,6.445220947265625
1715114160671232500,12.252232421875,-3.9738759994506836,-3.496584892272949,8.010298728942871
1715114160681182500,12.262182373046874,-4.173280715942383,-3.7875757217407227,8.969724655151367
1715114160691132200,12.272132080078125,-4.061186790466309,-4.059487342834473,9.304547309875488
1715114160701082000,12.28208203125,-3.739502429962158,-4.2290496826171875,9.190679550170898
1715114160711032000,12.292031982421875,-3.4598708152770996,-4.611723899841309,8.302024841308594
1715114160720982000,12.30198193359375,-3.57548189163208,-5.044075012207031,6.894530773162842
1715114160730932000,12.311931884765626,-4.039222717285156,-5.326517105102539,5.642189979553223
1715114160740881700,12.321881591796876,-5.160789966583252,-4.868612289428711,5.938328266143799
1715114160750831600,12.33183154296875,-6.262748718261719,-3.9495058059692383,6.164980411529541
1715114160760781600,12.341781494140625,-6.124549865722656,-3.7512083053588867,3.0226871967315674
1715114160770731500,12.3517314453125,-5.988080024719238,-3.5994930267333984,-0.71688312292099
1715114160780681200,12.36168115234375,-7.005163192749023,-3.7891645431518555,-3.060464859008789
1715114160790631200,12.371631103515625,-6.168532848358154,-4.023598670959473,-3.1825668811798096
1715114160800581000,12.3815810546875,-3.6343562602996826,-3.6745662689208984,-2.098141670227051
1715114160810531000,12.391531005859376,-1.3801655769348145,-3.467641830444336,-0.8157862424850464
1715114160820481000,12.40148095703125,0.47341668605804443,-3.712571144104004,-0.8788633942604065
1715114160830430700,12.4114306640625,2.5619993209838867,-4.521533966064453,-1.9725708961486816
1715114160840380700,12.421380615234375,4.037680625915527,-5.89491081237793,-2.898373603820801
1715114160850330600,12.43133056640625,5.188145637512207,-7.177252769470215,-3.1304149627685547
1715114160860280600,12.441280517578125,5.962058067321777,-8.182266235351562,-3.0742812156677246
1715114160870230500,12.45123046875,6.524479866027832,-9.058103561401367,-3.5310492515563965
1715114160880180200,12.46118017578125,7.504112243652344,-9.607664108276367,-4.4800310134887695
1715114160890130200,12.471130126953126,8.90377426147461,-9.528997421264648,-6.758078575134277
1715114160900080000,12.481080078125,6.6979079246521,-7.980526924133301,-7.878039836883545
1715114160910030000,12.491030029296875,-6.292858123779297,-5.731049537658691,-4.953737735748291
1715114160919979800,12.500979736328125,-7.4449543952941895,-4.214956283569336,-4.636077880859375
1715114160929929700,12.5109296875,-3.175971508026123,-2.2399139404296875,-3.5578207969665527
1715114160939879700,12.520879638671875,1.2285799980163574,-0.21751689910888672,-1.6475036144256592
1715114160949829600,12.53082958984375,4.972314357757568,1.5645170211791992,0.13314777612686157
1715114160959779600,12.540779541015626,8.063851356506348,3.081026554107666,1.434262990951538
1715114160969729300,12.550729248046874,9.872885704040527,4.409201622009277,4.245511054992676
1715114160979679200,12.56067919921875,8.441232681274414,4.916218280792236,6.510066032409668
1715114160989629200,12.570629150390625,6.630735397338867,4.401595592498779,7.306618690490723
1715114160999579100,12.5805791015625,5.37764835357666,3.4106431007385254,7.575015544891357
1715114161009528800,12.59052880859375,3.6057662963867188,2.5640130043029785,7.196361064910889
1715114161019478800,12.600478759765625,3.601210832595825,2.3134303092956543,6.171520233154297
1715114161029428700,12.6104287109375,5.019604206085205,2.6866369247436523,4.823858261108398
1715114161039378700,12.620378662109376,6.779265403747559,3.4534096717834473,3.47461199760437
1715114161049328600,12.63032861328125,8.784933090209961,4.42949104309082,2.945986270904541
1715114161059278300,12.6402783203125,10.014761924743652,5.365536689758301,1.7922048568725586
1715114161069228300,12.650228271484375,10.914295196533203,6.326194763183594,0.6146546602249146
1715114161079178200,12.66017822265625,11.336377143859863,7.219967842102051,-0.44027912616729736
1715114161089128200,12.670128173828125,11.76909065246582,7.463335990905762,-1.7819515466690063
1715114161099078000,12.680077880859375,11.519460678100586,7.66239595413208,-2.1881985664367676
1715114161109027800,12.69002783203125,10.527174949645996,7.76204252243042,-2.212419271469116
1715114161118977800,12.699977783203124,9.753632545471191,7.832007884979248,-2.3367538452148438
1715114161128927700,12.709927734375,9.783827781677246,7.794274806976318,-1.9302046298980713
1715114161138877700,12.719877685546875,10.173406600952148,7.455162048339844,-1.9783118963241577
1715114161148827600,12.72982763671875,9.60733413696289,6.678485870361328,-3.266749382019043
1715114161158777600,12.739777587890625,5.792795181274414,5.06519079208374,-4.9357991218566895
1715114161168727600,12.7497275390625,-9.902849197387695,1.5150561332702637,-7.07474422454834
1715114161178677500,12.759677490234376,-32.08574676513672,-7.265108108520508,-8.587038040161133
1715114161188627500,12.76962744140625,-34.89082717895508,-19.7874755859375,-3.938847064971924
1715114161198577400,12.779577392578124,-10.373475074768066,-19.90966033935547,0.4982258081436157
1715114161208527400,12.78952734375,-5.616506576538086,-13.40086555480957,1.8014363050460815
1715114161218477300,12.799477294921875,-8.302886962890625,-6.334939002990723,0.8062847256660461
1715114161228427300,12.80942724609375,-6.4793596267700195,0.26959991455078125,-0.7841806411743164
