time,seconds_elapsed,z,y,x
1715114148491182000,0.07218212890625,4.778826713562012,2.8347349166870117,0.2585737705230713
1715114148501266700,0.0822666015625,5.023035049438477,3.5386300086975098,0.8044517636299133
1715114148511394000,0.09239404296875,5.315127849578857,3.9695863723754883,1.556231141090393
1715114148521555700,0.1025556640625,5.564124584197998,4.299986362457275,2.2361843585968018
1715114148531741700,0.11274169921875,5.937620162963867,4.41969633102417,2.4181437492370605
1715114148541941800,0.122941650390625,6.378153324127197,4.223371982574463,2.1739351749420166
1715114148552141800,0.133141845703125,6.607996463775635,4.07014274597168,1.7812861204147339
1715114148562176000,0.143176025390625,7.216124057769775,3.60566782951355,1.0438719987869263
1715114148572126000,0.1531259765625,7.354987621307373,3.2752678394317627,0.9097966551780701
1715114148582076000,0.163075927734375,8.494627952575684,3.3231520652770996,1.139639973640442
1715114148592025600,0.173025634765625,10.247182846069336,3.2082302570343018,1.7286136150360107
1715114148601975600,0.1829755859375,10.582371711730957,3.28963303565979,2.255337953567505
1715114148611925500,0.192925537109375,10.438719749450684,3.399766445159912,2.2361843585968018
1715114148621875500,0.20287548828125,9.634267807006836,3.4380736351013184,1.8100165128707886
1715114148631825400,0.212825439453125,9.634267807006836,3.533841609954834,1.3694833517074585
1715114148641775000,0.222775146484375,10.002974510192871,3.529053211212158,1.5466543436050415
1715114148651725000,0.23272509765625,10.960655212402344,3.1220390796661377,1.1013327836990356
1715114148661675000,0.242675048828125,11.018115997314453,3.0597896575927734,1.259350061416626
1715114148671625000,0.252625,11.133037567138672,4.261679172515869,2.011129379272461
1715114148681574700,0.26257470703125,12.09550666809082,4.414907932281494,2.7054479122161865
1715114148691524600,0.272524658203125,12.612654685974121,3.624821424484253,2.695871114730835
1715114148701474600,0.282474609375,12.325350761413574,2.734178304672241,1.8579005002975464
1715114148711424500,0.292424560546875,11.841721534729004,2.1595699787139893,1.0773907899856567
1715114148721374500,0.30237451171875,12.866439819335938,1.5945383310317993,1.072602391242981
1715114148731324200,0.31232421875,13.383587837219238,1.460463047027588,1.2976573705673218
1715114148741274000,0.322274169921875,13.991714477539062,1.8291701078414917,1.6711528301239014
1715114148751224000,0.33222412109375,13.374011039733887,1.5849615335464478,2.1499931812286377
1715114148761174000,0.342174072265625,11.903970718383789,1.455674648284912,2.360682964324951
1715114148771124000,0.3521240234375,10.146626472473145,1.3120225667953491,2.3750481605529785
1715114148781073700,0.36207373046875,8.374917984008789,1.1779472827911377,2.011129379272461
1715114148791023600,0.372023681640625,8.719682693481445,0.7661445140838623,1.048660397529602
1715114148800973600,0.3819736328125,10.663774490356445,-0.26336219906806946,0.5602431893348694
1715114148810923500,0.391923583984375,13.086706161499023,-1.173158884048462,0.6943184733390808
1715114148820873200,0.401873291015625,15.049951553344727,-2.1068975925445557,0.24899697303771973
1715114148830823200,0.4118232421875,15.322891235351562,-2.806004285812378,-0.19632454216480255
1715114148840773000,0.421773193359375,14.781801223754883,-2.494758129119873,-0.1867477297782898
1715114148850723000,0.43172314453125,14.494497299194336,-2.0398597717285156,0.21547815203666687
1715114148860673000,0.441673095703125,14.460978507995605,-1.7956513166427612,0.5746083855628967
1715114148870622700,0.451622802734375,14.824896812438965,-1.8770540952682495,0.33997663855552673
1715114148880572700,0.46157275390625,14.599842071533203,-1.9536685943603516,0.3878606855869293
1715114148890522600,0.471522705078125,12.952630996704102,-1.886630892753601,0.4644751250743866
1715114148900472600,0.48147265625,11.487380027770996,-1.37906014919281,0.33518823981285095
1715114148910422300,0.49142236328125,11.405977249145508,-1.139639973640442,0.3734954595565796
1715114148920372200,0.501372314453125,11.621455192565918,-1.158793568611145,0.4118026793003082
1715114148930322200,0.511322265625,11.568782806396484,-0.8954314589500427,0.33997663855552673
1715114148940272000,0.521272216796875,11.243170738220215,-0.6033388376235962,0.40222588181495667
1715114148950222000,0.53122216796875,10.314221382141113,-0.3926490843296051,0.40222588181495667
1715114148960171800,0.541171875,8.99740982055664,-0.3447650372982025,0
1715114148970121700,0.551121826171875,7.5417351722717285,-0.44532153010368347,-0.4405331015586853
1715114148980071700,0.56107177734375,6.315904140472412,-0.11013327538967133,-0.1388636976480484
1715114148990021600,0.571021728515625,6.2392897605896,0.5554547905921936,1.1971008777618408
1715114148999971300,0.580971435546875,6.114790916442871,0.8954314589500427,2.580949544906616
1715114149009921300,0.59092138671875,5.74129581451416,0.7613561153411865,2.782062292098999
1715114149019871200,0.600871337890625,5.60722017288208,0.5554547905921936,2.6623523235321045
1715114149029821200,0.6108212890625,6.354211330413818,0.2968810200691223,1.8722656965255737
1715114149039771100,0.620771240234375,6.737283706665039,0.44532153010368347,0.507570743560791
1715114149049720800,0.630720947265625,6.584054470062256,0.6320692300796509,0.24420857429504395
1715114149059670800,0.6406708984375,6.066906929016113,0.727837324142456,0.8475474119186401
1715114149069620700,0.650620849609375,5.813121795654297,0.9528923034667969,1.2545616626739502
1715114149079570700,0.66057080078125,6.229712963104248,1.2641384601593018,1.7094600200653076
1715114149089520400,0.670520263671875,6.4164605140686035,1.824381709098816,3.093308687210083
1715114149099470300,0.68047021484375,7.110779285430908,2.3271639347076416,4.592078685760498
1715114149109420300,0.690420166015625,7.929595947265625,2.5282769203186035,5.612008571624756
1715114149119370200,0.700370361328125,8.470685958862305,2.274491548538208,5.453991413116455
1715114149129320200,0.7103203125,9.509769439697266,1.920149803161621,3.136404275894165
1715114149139270000,0.720269775390625,9.610325813293457,1.403002142906189,1.680729627609253
1715114149149219800,0.7302197265625,9.605537414550781,0.6512228846549988,1.5945383310317993
1715114149159169800,0.740169677734375,9.797073364257812,0.33039984107017517,1.5849615335464478
1715114149169119700,0.75011962890625,9.758766174316406,0.19153612852096558,1.5131354331970215
1715114149179069700,0.760069580078125,10.266336441040039,0.11971008777618408,1.886630892753601
1715114149189019400,0.770019287109375,10.342951774597168,0.10055647045373917,2.7772738933563232
1715114149198969300,0.77996923828125,11.080365180969238,0.1867477297782898,3.7014358043670654
1715114149208919300,0.789919189453125,11.343728065490723,0.8427590131759644,4.697423934936523
1715114149218869200,0.799869140625,11.736376762390137,1.3694833517074585,5.851428985595703
1715114149228819000,0.80981884765625,11.784260749816895,1.3646949529647827,6.54574728012085
1715114149238769000,0.819768798828125,11.027692794799805,1.2880805730819702,6.478709697723389
1715114149248718800,0.82971875,9.797073364257812,0.6991068720817566,6.129156112670898
1715114149258668800,0.839668701171875,9.677363395690918,0.12928688526153564,5.60722017288208
1715114149268618800,0.84961865234375,10.94150161743164,0.043095629662275314,4.912901878356934
1715114149278568400,0.859568359375,12.966996192932129,-0.3495534360408783,4.137180328369141
1715114149288518400,0.869518310546875,14.393940925598145,-0.9720458984375,3.098097085952759
1715114149298468400,0.87946826171875,14.484920501708984,-1.3646949529647827,2.0829553604125977
1715114149308418300,0.889418212890625,13.532028198242188,-1.556231141090393,1.3694833517074585
1715114149318368000,0.899367919921875,12.473791122436523,-1.647210717201233,1.50355863571167
1715114149328318000,0.90931787109375,11.645397186279297,-1.4891934394836426,2.8107926845550537
1715114149338268000,0.919267822265625,11.075576782226562,-0.5985504388809204,5.286397457122803
1715114149348217900,0.9292177734375,11.75553035736084,-0.019153613597154617,8.245630264282227
1715114149358167800,0.939167724609375,13.062764167785645,0.38307225704193115,9.682151794433594
1715114149368117500,0.949117431640625,12.871228218078613,0.8810662031173706,9.706093788146973
1715114149378067500,0.9590673828125,11.003750801086426,0.6368576288223267,9.121908187866211
1715114149388017400,0.969017333984375,9.557653427124023,-0.08140286058187485,8.020575523376465
1715114149397967400,0.97896728515625,9.241618156433105,-0.33518823981285095,6.775590896606445
1715114149407917300,0.988917236328125,8.935160636901855,-0.24899697303771973,6.119579315185547
1715114149417867300,0.9988671875,8.327033042907715,-0.13407529890537262,5.592854976654053
1715114149427817200,1.008817138671875,8.829815864562988,-0.019153613597154617,5.904101371765137
1715114149437767200,1.01876708984375,10.18493366241455,0.3687070608139038,7.000645637512207
1715114149447717000,1.028717041015625,9.840168952941895,1.1540051698684692,7.565677165985107
1715114149457667000,1.0386669921875,8.461109161376953,1.4939818382263184,7.920019149780273
1715114149467617000,1.048616943359375,7.666234016418457,1.8339585065841675,7.795520782470703
1715114149477567000,1.05856689453125,6.665457725524902,2.1499931812286377,7.383718013763428
1715114149487517000,1.068516845703125,7.134721279144287,2.806004285812378,9.040505409240723
1715114149497467000,1.078466796875,5.770026206970215,0.7852981686592102,5.626373767852783
1715114149507416800,1.088416748046875,3.624821424484253,-0.15322890877723694,1.8818424940109253
1715114149517366800,1.09836669921875,0.3256114423274994,0.9097966551780701,1.7764976024627686
1715114149527316700,1.108316650390625,-4.223371982574463,0.5410895943641663,1.2880805730819702
1715114149537266700,1.1182666015625,-3.9169139862060547,-0.004788403399288654,1.3551181554794312
1715114149547216600,1.128216552734375,-0.2968810200691223,0.38307225704193115,2.432508945465088
1715114149557166600,1.13816650390625,4.137180328369141,0.5985504388809204,2.9017724990844727
1715114149567116500,1.148116455078125,7.881711959838867,0.7422025203704834,2.6240451335906982
1715114149577066500,1.15806640625,7.1251444816589355,1.091755986213684,3.5865142345428467
1715114149587016400,1.168016357421875,5.013458251953125,2.935291290283203,5.851428985595703
1715114149596966400,1.17796630859375,3.533841609954834,2.896984100341797,7.469909191131592
1715114149606916400,1.187916259765625,3.706224203109741,2.10210919380188,8.178592681884766
1715114149616866300,1.1978662109375,4.721365928649902,1.968033790588379,7.206547260284424
1715114149626816300,1.207816162109375,3.663128614425659,1.5466543436050415,5.717353820800781
1715114149636766200,1.21776611328125,5.3342814445495605,1.6089035272598267,6.076483726501465
1715114149646716200,1.227716064453125,8.135497093200684,1.900996208190918,7.283161640167236
1715114149656666000,1.237666015625,9.21288776397705,1.2880805730819702,8.480262756347656
1715114149666616000,1.247615966796875,9.08838939666748,1.6184803247451782,7.163451671600342
1715114149676566000,1.25756591796875,5.420472621917725,2.011129379272461,5.626373767852783
1715114149686516000,1.267515869140625,3.9456443786621094,2.2170307636260986,7.354987621307373
1715114149696466000,1.2774658203125,6.14831018447876,2.6144683361053467,11.137825965881348
1715114149706415900,1.287415771484375,9.27034854888916,2.0685901641845703,14.954183578491211
1715114149716365800,1.29736572265625,10.462661743164062,2.5953147411346436,10.807426452636719
1715114149726315800,1.307315673828125,10.960655212402344,1.8052281141281128,3.6296098232269287
1715114149736265700,1.317265625,11.559206008911133,1.2641384601593018,2.8634653091430664
1715114149746215700,1.327215576171875,11.262324333190918,0.9528923034667969,7.0772600173950195
1715114149756165400,1.337165283203125,8.738836288452148,2.4612393379211426,8.973467826843262
1715114149766115300,1.347115234375,7.90086555480957,2.4468741416931152,9.41400146484375
1715114149776065300,1.357065185546875,9.500192642211914,1.8339585065841675,8.49941635131836
1715114149786015200,1.36701513671875,12.162544250488281,1.2114660739898682,8.212111473083496
1715114149795965000,1.37696484375,15.648502349853516,0.3974374830722809,7.65186882019043
1715114149805915000,1.386914794921875,16.328454971313477,-0.14365209639072418,7.196970462799072
1715114149815864800,1.39686474609375,14.925453186035156,-0.2825157940387726,6.818686485290527
1715114149825814800,1.406814697265625,12.717999458312988,-0.17238251864910126,5.774814605712891
1715114149835764700,1.4167646484375,11.66455078125,-0.608127236366272,4.548983097076416
1715114149845714400,1.42671435546875,11.635820388793945,-1.2880805730819702,3.845088005065918
1715114149855664400,1.436664306640625,12.42111873626709,-1.1013327836990356,2.8155810832977295
1715114149865614300,1.4466142578125,7.55131196975708,-1.8531121015548706,1.6041151285171509
1715114149875564300,1.456564208984375,5.310339450836182,-1.2449848651885986,2.7054479122161865
1715114149885514000,1.466513916015625,5.65031623840332,-1.0247182846069336,4.333505153656006
1715114149895464000,1.4764638671875,6.9240312576293945,-1.091755986213684,5.726930618286133
1715114149905414000,1.486413818359375,8.374917984008789,-1.4844050407409668,5.6455278396606445
1715114149915363800,1.49636376953125,8.705317497253418,-1.4077905416488647,5.257667064666748
1715114149925313800,1.506313720703125,8.269572257995605,-1.3742717504501343,5.142745018005371
1715114149935263500,1.516263427734375,8.164227485656738,-1.5849615335464478,4.256890773773193
1715114149945213400,1.52621337890625,10.51054573059082,-1.8339585065841675,3.998316764831543
1715114149955163400,1.536163330078125,12.631808280944824,-2.164358377456665,3.045424461364746
1715114149965113300,1.54611328125,12.435483932495117,-2.580949544906616,1.048660397529602
1715114149975063000,1.55606298828125,12.009315490722656,-2.9688100814819336,0.2346317619085312
1715114149985013000,1.566012939453125,11.314997673034668,-2.920926094055176,-0.20111294090747833
1715114149994963000,1.575962890625,9.23682975769043,-2.0829553604125977,0.569819986820221
1715114150004913000,1.585912841796875,6.172252178192139,-1.6184803247451782,1.139639973640442
1715114150014862800,1.59586279296875,3.7828385829925537,-1.0869675874710083,1.5705963373184204
1715114150024812500,1.6058125,3.869029998779297,-0.3687070608139038,2.2601263523101807
1715114150034762500,1.615762451171875,5.592854976654053,-0.08140286058187485,2.7293899059295654
1715114150044712400,1.62571240234375,7.005434036254883,0.33039984107017517,3.5434184074401855
1715114150054662400,1.635662353515625,6.660669326782227,-0.07182604819536209,2.782062292098999
1715114150064612400,1.6456123046875,6.976703643798828,-0.17238251864910126,2.3127987384796143
1715114150074562000,1.65556201171875,7.967903137207031,-0.3208230137825012,2.513911724090576
1715114150084512000,1.665511962890625,8.53293514251709,-0.507570743560791,1.7286136150360107
1715114150094462000,1.6754619140625,8.643068313598633,-0.8140285611152649,1.3407529592514038
1715114150104412000,1.685411865234375,7.067683219909668,-0.7134721279144287,0.9768342971801758
1715114150114361600,1.695361572265625,5.966350555419922,-0.3926490843296051,1.5418659448623657
1715114150124311600,1.7053115234375,7.2113356590271,-0.3016694188117981,2.38462495803833
1715114150134261500,1.715261474609375,7.340622425079346,0.1149216815829277,3.1316158771514893
1715114150144211500,1.72521142578125,6.138733386993408,0.38307225704193115,3.3279404640197754
1715114150154161400,1.735161376953125,5.966350555419922,0.43095630407333374,3.9695863723754883
1715114150164111000,1.745111083984375,6.531382083892822,1.0295066833496094,5.549759387969971
1715114150174061000,1.75506103515625,5.578489780426025,1.2449848651885986,6.119579315185547
1715114150184011000,1.765010986328125,6.833051681518555,0.9576807022094727,5.928043365478516
1715114150193961000,1.7749609375,9.897629737854004,1.5705963373184204,6.564900875091553
1715114150203910700,1.78491064453125,9.849745750427246,1.920149803161621,5.985504150390625
1715114150213860600,1.794860595703125,9.107542991638184,1.8962076902389526,5.655104637145996
1715114150223810600,1.804810546875,10.884040832519531,1.0821791887283325,6.210559368133545
1715114150233760500,1.814760498046875,13.637372970581055,-1.2449848651885986,4.060565948486328
1715114150243710500,1.82471044921875,16.17522621154785,-2.4803929328918457,4.089296340942383
1715114150253660200,1.83466015625,17.63568878173828,-1.968033790588379,4.898536682128906
1715114150263610000,1.844610107421875,16.41464614868164,-0.11971008777618408,8.916007041931152
1715114150273560000,1.85456005859375,11.367670059204102,1.0534487962722778,9.17936897277832
1715114150283510000,1.864510009765625,9.083600997924805,0.4165911078453064,9.222464561462402
1715114150293459700,1.874459716796875,10.089165687561035,0.5315127968788147,9.916783332824707
1715114150303409700,1.88440966796875,10.381258964538574,0.5841852426528931,9.188945770263672
1715114150313359600,1.894359619140625,9.816226959228516,-0.7422025203704834,5.549759387969971
1715114150323309600,1.9043095703125,9.998186111450195,-3.3854012489318848,-0.004788403399288654
1715114150333259500,1.914259521484375,11.348516464233398,-5.061342239379883,-3.7253777980804443
1715114150343209500,1.92420947265625,15.433024406433105,-4.132391929626465,0.5123591423034668
1715114150353159400,1.934159423828125,17.089811325073242,-3.7158010005950928,7.096413612365723
1715114150363109400,1.944109375,14.690821647644043,-3.711012601852417,8.9064302444458
1715114150373059300,1.954059326171875,11.161767959594727,-3.7636849880218506,7.9631147384643555
1715114150383009300,1.96400927734375,8.513781547546387,-4.247313976287842,5.999869346618652
1715114150392959200,1.973959228515625,7.307103633880615,-5.07570743560791,4.07014274597168
1715114150402909200,1.9839091796875,8.250418663024902,-5.257667064666748,2.126051187515259
1715114150412859100,1.993859130859375,8.197746276855469,-4.529829502105713,0.7230489253997803
1715114150422809000,2.00380908203125,7.9631147384643555,-4.6734819412231445,1.115697979927063
1715114150432759000,2.013759033203125,8.015787124633789,-4.271255970001221,2.4612393379211426
1715114150442709000,2.023708984375,8.293514251708984,-3.1747114658355713,6.090848922729492
1715114150452659000,2.033658935546875,8.20732307434082,-2.6575639247894287,9.888052940368652
1715114150462609000,2.04360888671875,6.617573261260986,-2.097320795059204,15.442601203918457
1715114150472558800,2.053558837890625,6.138733386993408,-0.7661445140838623,19.63245391845703
1715114150482508800,2.0635087890625,6.7708024978637695,-0.3208230137825012,12.263101577758789
1715114150492458800,2.073458740234375,6.962338447570801,-2.1356279850006104,6.57926607131958
1715114150502408700,2.08340869140625,6.818686485290527,-3.6343982219696045,2.1547815799713135
1715114150512358700,2.093358642578125,5.635950565338135,-3.529053211212158,0.4357447028160095
1715114150522308400,2.103308349609375,5.449203014373779,-2.5665841102600098,-0.07182604819536209
1715114150532258300,2.11325830078125,5.717353820800781,-3.002328872680664,-1.6280571222305298
1715114150542208300,2.123208251953125,6.186617374420166,-4.141968727111816,-4.01268196105957
1715114150552158200,2.133158203125,5.564124584197998,-4.223371982574463,-3.734954595565796
1715114150562108200,2.143108154296875,5.295974254608154,-3.1316158771514893,-0.26815059781074524
1715114150572058000,2.15305810546875,4.994304656982422,-1.5945383310317993,4.189853191375732
1715114150582008000,2.163008056640625,3.821146011352539,-0.4644751250743866,7.556100368499756
1715114150591958000,2.1729580078125,3.0310592651367188,0.33997663855552673,9.337387084960938
1715114150601908000,2.182907958984375,1.7334020137786865,0.2346317619085312,9.313444137573242
1715114150611858000,2.19285791015625,1.2976573705673218,-0.49320554733276367,7.675810813903809
1715114150621807900,2.202807861328125,2.8395233154296875,-0.7757213711738586,5.406107425689697
1715114150631757800,2.2127578125,2.9975404739379883,-0.9481038451194763,5.386953830718994
1715114150641707800,2.222707763671875,3.4524388313293457,-1.455674648284912,5.726930618286133
1715114150651657700,2.23265771484375,3.7445313930511475,-2.0829553604125977,4.965574264526367
1715114150661607700,2.242607666015625,3.643975019454956,-2.557007312774658,3.466804027557373
1715114150671557600,2.2525576171875,2.537853717803955,-3.2130186557769775,2.4420857429504395
1715114150681507600,2.262507568359375,1.9057846069335938,-4.089296340942383,2.0638017654418945
1715114150691457500,2.27245751953125,1.0869675874710083,-4.501099109649658,4.759673118591309
1715114150701407500,2.282407470703125,0.6272808313369751,-5.171475887298584,4.941632270812988
1715114150711357400,2.292357421875,-1.2018892765045166,-6.0190229415893555,4.592078685760498
1715114150721307400,2.302307373046875,-6.660669326782227,-6.909666061401367,7.134721279144287
1715114150731257300,2.31225732421875,-5.564124584197998,-6.8809356689453125,9.045293807983398
1715114150741207300,2.322207275390625,-2.6815059185028076,-6.866570472717285,21.169530868530273
1715114150751157200,2.3321572265625,-1.2018892765045166,-3.663128614425659,30.119056701660156
1715114150761107200,2.342107177734375,-1.0007762908935547,-2.250549554824829,28.25157928466797
1715114150771057200,2.35205712890625,-0.6320692300796509,-6.071695327758789,20.40338706970215
1715114150781007000,2.362007080078125,1.6184803247451782,-7.005434036254883,14.88714599609375
1715114150790957000,2.37195703125,5.1810526847839355,-6.435614109039307,10.922348022460938
1715114150800907000,2.381906982421875,4.587290287017822,-7.733271598815918,9.591172218322754
1715114150810857000,2.39185693359375,0.5602431893348694,-10.577583312988281,7.393294811248779
1715114150820807000,2.401806884765625,-0.11013327538967133,-11.15697956085205,3.3901896476745605
1715114150830756600,2.411756591796875,-0.3687070608139038,-10.47702693939209,0.5985504388809204
1715114150840706600,2.42170654296875,2.365471363067627,-5.679046630859375,1.6328455209732056
1715114150850656500,2.431656494140625,6.794744491577148,-1.3886369466781616,5.434837818145752
1715114150860606500,2.4416064453125,9.21288776397705,-2.030282974243164,5.439626216888428
1715114150870556400,2.451556396484375,5.214571475982666,-6.540958881378174,6.856993675231934
1715114150880506000,2.461506103515625,0.7805097699165344,-9.27034854888916,6.3733649253845215
1715114150890456000,2.4714560546875,-0.9433154463768005,-9.773131370544434,6.100425720214844
1715114150900406000,2.481406005859375,-0.35913026332855225,-9.591172218322754,6.631938934326172
1715114150910356000,2.49135595703125,-0.3256114423274994,-7.3693528175354,8.188169479370117
1715114150920305700,2.5013056640625,8.801085472106934,-3.361459255218506,7.4555439949035645
1715114150930255600,2.511255615234375,10.304644584655762,-6.48828649520874,7.254431247711182
1715114150940205600,2.52120556640625,9.485827445983887,-9.77791976928711,7.038952827453613
1715114150950155500,2.531155517578125,7.560888767242432,-11.832144737243652,5.4444146156311035
1715114150960105500,2.54110546875,6.0190229415893555,-10.496180534362793,5.377377033233643
1715114150970055200,2.55105517578125,2.0925323963165283,-8.935160636901855,3.97916316986084
1715114150980005000,2.561005126953125,-0.7709329724311829,-8.719682693481445,3.4620156288146973
1715114150989955000,2.570955078125,-0.7805097699165344,-8.508993148803711,4.63517427444458
1715114150999905000,2.580905029296875,0.26815059781074524,-7.982268333435059,5.899312973022461
1715114151009854700,2.590854736328125,0.13407529890537262,-7.216124057769775,5.583278179168701
1715114151019804700,2.6008046875,-0.8236053586006165,-6.076483726501465,4.458003520965576
1715114151029754600,2.610754638671875,-1.2737152576446533,-2.585737943649292,0.49799394607543945
1715114151039704600,2.62070458984375,-0.4836287498474121,-0.7134721279144287,0.26336219906806946
1715114151049654500,2.630654541015625,0.6272808313369751,-0.6607996821403503,0.4118026793003082
1715114151059604200,2.640604248046875,1.7286136150360107,-2.1356279850006104,-0.9193734526634216
1715114151069554200,2.65055419921875,2.2409727573394775,-3.734954595565796,-2.1739351749420166
1715114151079504100,2.660504150390625,2.691082715988159,-3.754108190536499,-1.5083470344543457
1715114151089454000,2.6704541015625,2.7724854946136475,-3.73016619682312,-0.9193734526634216
1715114151099403800,2.68040380859375,2.494758129119873,-3.509899616241455,-0.49320554733276367
1715114151109353700,2.690353759765625,2.456450939178467,-3.184288263320923,-0.07182604819536209
1715114151119303700,2.7003037109375,2.513911724090576,-2.762908697128296,0.2585737705230713
1715114151129253600,2.710253662109375,2.0829553604125977,-2.360682964324951,0.5889736413955688
1715114151139203600,2.72020361328125,1.7573440074920654,-2.7102363109588623,0.8954314589500427
1715114151149153300,2.7301533203125,1.8387469053268433,-2.9927520751953125,0.6320692300796509
1715114151159103200,2.740103271484375,1.556231141090393,-3.60566782951355,0.646434485912323
1715114151169053200,2.75005322265625,-5.2672438621521,-4.750096321105957,3.9456443786621094
1715114151179003100,2.760003173828125,-0.8044517636299133,-5.2672438621521,0.9864110946655273
1715114151188952800,2.769952880859375,0.6512228846549988,-6.028599739074707,-0.272938996553421
1715114151198902800,2.77990283203125,-0.7326257228851318,-8.365341186523438,-0.9050082564353943
1715114151208852700,2.789852783203125,-2.5282769203186035,-32.905906677246094,-3.308786630630493
1715114151218802700,2.799802734375,0.6943184733390808,-53.668426513671875,-5.899312973022461
1715114151228752600,2.809752685546875,1.987187385559082,-41.14196014404297,-0.09576806426048279
1715114151238702300,2.819702392578125,6.761225700378418,-25.40247917175293,6.406883716583252
1715114151248652300,2.82965234375,5.4252610206604,-19.177555084228516,11.72201156616211
1715114151258602200,2.839602294921875,0.5027823448181152,-15.873557090759277,19.44570541381836
1715114151268552200,2.84955224609375,1.599326729774475,-10.94150161743164,19.728221893310547
1715114151278502100,2.859502197265625,3.112462282180786,-10.093954086303711,5.894524574279785
1715114151288452000,2.8694521484375,3.3949780464172363,-12.196063041687012,-0.6655880808830261
1715114151298402000,2.879402099609375,1.800439715385437,-12.808979034423828,-2.7533318996429443
1715114151308352000,2.88935205078125,-7.402871608734131,-11.463438034057617,-4.414907932281494
1715114151318302000,2.899302001953125,-22.91250991821289,-12.24394702911377,-6.98628044128418
1715114151328252000,2.909251953125,-15.10262393951416,-11.013327598571777,-2.7724854946136475
1715114151338201900,2.919201904296875,-3.8355112075805664,-10.984597206115723,1.9584569931030273
1715114151348151800,2.92915185546875,1.4077905416488647,-12.823344230651855,1.7477672100067139
1715114151358101800,2.939101806640625,3.758896589279175,-15.193603515625,-2.389413356781006
1715114151368051700,2.9490517578125,3.4572272300720215,-17.209522247314453,-7.2783732414245605
1715114151378001700,2.959001708984375,2.935291290283203,-17.932571411132812,-8.796297073364258
1715114151387951600,2.96895166015625,3.112462282180786,-16.931795120239258,-5.104437828063965
1715114151397901600,2.978901611328125,3.8977603912353516,-16.261417388916016,-2.5905263423919678
1715114151407851500,2.9888515625,4.113238334655762,-16.673221588134766,-2.456450939178467
1715114151417801200,2.99880126953125,3.490746021270752,-17.755399703979492,-3.2417490482330322
1715114151427751200,3.008751220703125,2.1930887699127197,-19.100940704345703,-4.481945514678955
1715114151437701000,3.018701171875,1.015141487121582,-19.80962562561035,-6.301538944244385
1715114151447651000,3.028651123046875,1.2018892765045166,-19.369091033935547,-6.914454460144043
1715114151457601000,3.03860107421875,-0.33997663855552673,-17.01319694519043,-5.382165431976318
1715114151467551000,3.048551025390625,-1.2258312702178955,-13.88158130645752,-3.0837318897247314
1715114151477501000,3.0585009765625,-0.1149216815829277,-11.334151268005371,-2.03507137298584
1715114151487451000,3.068450927734375,1.5131354331970215,-8.801085472106934,-1.216254472732544
1715114151497400800,3.07840087890625,3.6727054119110107,-7.556100368499756,-0.6943184733390808
1715114151507350800,3.088350830078125,5.157110691070557,-5.9519853591918945,1.259350061416626
1715114151517300700,3.09830078125,5.894524574279785,-4.639962673187256,3.825934410095215
1715114151527250700,3.108250732421875,4.922478675842285,-4.055777549743652,5.540182590484619
1715114151537200600,3.11820068359375,2.6623523235321045,-4.01268196105957,6.402095317840576
1715114151547150600,3.128150634765625,0.5602431893348694,-4.046200752258301,6.378153324127197
1715114151557100500,3.1381005859375,0.17238251864910126,-4.060565948486328,5.032611846923828
1715114151567050500,3.148050537109375,0.033518824726343155,-3.8067808151245117,3.912125587463379
1715114151577000400,3.15800048828125,0.10055647045373917,-3.3039982318878174,3.2178070545196533
1715114151586950400,3.167950439453125,0.5602431893348694,-2.715024709701538,2.7437551021575928
1715114151596900400,3.177900390625,1.1779472827911377,-2.2026655673980713,1.5849615335464478
1715114151606850300,3.187850341796875,1.6041151285171509,-1.2306196689605713,0.5410895943641663
1715114151616800300,3.19780029296875,2.513911724090576,-0.15322890877723694,-0.21547815203666687
1715114151626750200,3.207750244140625,3.466804027557373,0.7182605266571045,0.009576806798577309
1715114151636700200,3.2177001953125,4.323928356170654,1.436521053314209,0.5746083855628967
1715114151646650000,3.227650146484375,5.937620162963867,1.6424223184585571,0.5410895943641663
1715114151656600000,3.23760009765625,6.952761650085449,1.0773907899856567,-0.6320692300796509
1715114151666550000,3.247550048828125,6.2201361656188965,-0.14365209639072418,-3.2992098331451416
1715114151676500000,3.2575,5.04218864440918,-1.8195933103561401,-5.492298603057861
1715114151686450000,3.267449951171875,2.47560453414917,-4.07014274597168,-6.746860504150391
1715114151696400000,3.27739990234375,-6.890512466430664,-7.307103633880615,-7.086836814880371
1715114151706349800,3.287349853515625,-24.765623092651367,-13.55118179321289,-5.621585369110107
1715114151716299800,3.2972998046875,-35.52995300292969,-25.804706573486328,0.06224924325942993
1715114151726249700,3.307249755859375,-23.9420166015625,-33.035194396972656,1.0438719987869263
1715114151736199700,3.31719970703125,-12.631808280944824,-27.56683921813965,0.5746083855628967
1715114151746149600,3.327149658203125,-7.522581577301025,-17.597381591796875,0.828393816947937
1715114151756099600,3.337099609375,-6.4164605140686035,-9.715670585632324,0.31603461503982544
1715114151766049500,3.347049560546875,-6.947973251342773,-5.372588634490967,-2.4468741416931152
1715114151775999500,3.35699951171875,-6.665457725524902,-3.663128614425659,-5.353435039520264
1715114151785949400,3.366949462890625,-5.535394191741943,-4.381389141082764,-7.450755596160889
1715114151795899400,3.3768994140625,-4.247313976287842,-7.422025203704834,-8.485051155090332
1715114151805849300,3.386849365234375,-4.046200752258301,-12.157755851745605,-10.266336441040039
1715114151815799300,3.39679931640625,-3.5960910320281982,-16.2278995513916,-11.166556358337402
1715114151825749200,3.406749267578125,-1.1109095811843872,-15.76821231842041,-7.134721279144287
1715114151835699200,3.41669921875,1.2976573705673218,-11.702857971191406,-0.33039984107017517
1715114151845649000,3.42664892578125,1.460463047027588,-9.524134635925293,1.7286136150360107
1715114151855598800,3.436598876953125,2.762908697128296,-9.040505409240723,0
1715114151865548800,3.446548828125,3.88818359375,-8.820239067077637,-3.60566782951355
1715114151875498800,3.456498779296875,1.9823989868164062,-8.054094314575195,-6.856993675231934
1715114151885448700,3.46644873046875,-0.33039984107017517,-7.340622425079346,-8.743624687194824
1715114151895398400,3.4763984375,-1.3263877630233765,-7.608773231506348,-9.940725326538086
1715114151905348400,3.486348388671875,2.801215887069702,-8.422801971435547,-9.23682975769043
1715114151915298300,3.49629833984375,6.732495307922363,-8.901641845703125,-6.665457725524902
1715114151925248300,3.506248291015625,7.608773231506348,-8.973467826843262,-4.156333923339844
1715114151935198000,3.516197998046875,7.422025203704834,-8.9064302444458,-2.250549554824829
1715114151945148000,3.52614794921875,6.593631267547607,-9.011775016784668,-1.1348515748977661
1715114151955097900,3.536097900390625,5.363011837005615,-9.452308654785156,-0.6943184733390808
1715114151965047800,3.5460478515625,3.44765043258667,-10.036493301391602,-0.090979665517807
1715114151974997800,3.555997802734375,1.7621324062347412,-11.128249168395996,0.2585737705230713
1715114151984947500,3.565947509765625,0.5793967843055725,-13.038822174072266,0.7086837291717529
1715114151994897400,3.5758974609375,0.8379706144332886,-14.403517723083496,2.853888511657715
1715114152004847400,3.585847412109375,2.8155810832977295,-14.882357597351074,5.693411827087402
1715114152014797300,3.59579736328125,3.2321722507476807,-14.94460678100586,8.379706382751465
1715114152024747000,3.6057470703125,-1.6903064250946045,-14.044386863708496,10.41956615447998
1715114152034697000,3.615697021484375,-3.1747114658355713,-12.804190635681152,7.082048416137695
1715114152044647000,3.62564697265625,-1.9728221893310547,-11.8225679397583,5.8657941818237305
1715114152054596900,3.635596923828125,-1.0773907899856567,-10.414777755737305,5.884947776794434
1715114152064546800,3.645546875,-1.7525556087493896,-8.901641845703125,5.027823448181152
1715114152074496500,3.65549658203125,-3.8115692138671875,-7.795520782470703,3.4955344200134277
1715114152084446500,3.665446533203125,-5.5545477867126465,-7.101202011108398,1.335964560508728
1715114152094396400,3.675396484375,-5.161899089813232,-6.617573261260986,-0.47884035110473633
1715114152104346400,3.685346435546875,-2.762908697128296,-6.521805286407471,-2.1930887699127197
1715114152114296000,3.695296142578125,-0.14365209639072418,-6.7708024978637695,-3.936067581176758
1715114152124246000,3.70524609375,1.3311761617660522,-6.799532890319824,-4.046200752258301
1715114152134196000,3.715196044921875,1.5610195398330688,-6.732495307922363,-3.6343982219696045
1715114152144146000,3.72514599609375,1.158793568611145,-6.536170482635498,-3.2561142444610596
1715114152154095900,3.735095947265625,0.9097966551780701,-6.138733386993408,-2.0207061767578125
1715114152164045600,3.745045654296875,1.1540051698684692,-6.291962146759033,-2.5474305152893066
1715114152173995500,3.75499560546875,1.7142484188079834,-6.698976516723633,-4.730942726135254
1715114152183945500,3.764945556640625,0.20111294090747833,-7.503427982330322,-6.052541732788086
1715114152193895400,3.7748955078125,-6.507440090179443,-8.355764389038086,-7.168240070343018
1715114152203845000,3.78484521484375,-9.332598686218262,-9.346963882446289,-5.822698593139648
1715114152213795000,3.794795166015625,-5.779603004455566,-10.046070098876953,-2.7485435009002686
1715114152223745000,3.8047451171875,-1.6280571222305298,-11.104307174682617,-0.6847416758537292
1715114152233695000,3.814695068359375,0.4644751250743866,-12.497733116149902,0.6177040338516235
1715114152243645000,3.82464501953125,0.727837324142456,-13.713987350463867,2.38462495803833
1715114152253594600,3.8345947265625,-0.08140286058187485,-14.63814926147461,4.51067590713501
1715114152263544600,3.844544677734375,-1.6280571222305298,-14.666879653930664,6.598419666290283
1715114152273494500,3.85449462890625,-2.7293899059295654,-14.03959846496582,7.2352776527404785
1715114152283444500,3.864444580078125,-2.389413356781006,-13.546393394470215,7.000645637512207
1715114152293394400,3.87439453125,-1.3120225667953491,-13.374011039733887,6.660669326782227
1715114152303344400,3.884344482421875,-1.015141487121582,-13.436260223388672,6.18182897567749
1715114152313294300,3.89429443359375,-1.7573440074920654,-13.536816596984863,5.9088897705078125
1715114152323244300,3.904244384765625,-2.231395959854126,-13.64216136932373,6.143521785736084
1715114152333194200,3.9141943359375,-1.53707754611969,-13.828908920288086,5.578489780426025
1715114152343144200,3.924144287109375,-0.45489832758903503,-13.728352546691895,4.51067590713501
1715114152353094100,3.93409423828125,-0.10055647045373917,-13.584700584411621,2.9735984802246094
1715114152363044000,3.944044189453125,-1.048660397529602,-13.962984085083008,0.8810662031173706
1715114152372994000,3.953994140625,-3.00711727142334,-14.389152526855469,-1.1635819673538208
1715114152382944000,3.963944091796875,-3.7493197917938232,-14.480132102966309,-2.873042106628418
1715114152392894000,3.97389404296875,-2.10210919380188,-14.532804489135742,-3.8355112075805664
1715114152402844000,3.983843994140625,0.8379706144332886,-14.513650894165039,-4.266467571258545
1715114152412793900,3.9937939453125,3.375824451446533,-14.413094520568848,-3.9600095748901367
1715114152422743800,4.003743896484375,4.711789131164551,-14.767436027526855,-3.514688014984131
1715114152432693800,4.01369384765625,5.07570743560791,-15.739481925964355,-2.868253707885742
1715114152442643700,4.023643798828125,5.348646640777588,-17.271770477294922,-2.212242364883423
1715114152452593700,4.03359375,7.216124057769775,-18.823213577270508,-4.079719543457031
1715114152462543600,4.043543701171875,9.265560150146484,-19.895816802978516,-7.029376029968262
1715114152472493600,4.05349365234375,9.926360130310059,-19.479225158691406,-9.059659004211426
1715114152482443500,4.063443603515625,7.1251444816589355,-17.310077667236328,-8.576030731201172
1715114152492393500,4.0733935546875,-5.8657941818237305,-15.112200736999512,-4.831499099731445
1715114152502343400,4.083343505859375,-9.327810287475586,-13.785813331604004,-4.137180328369141
1715114152512293400,4.09329345703125,-5.726930618286133,-12.224793434143066,-3.7876269817352295
1715114152522243300,4.103243408203125,-1.9297266006469727,-10.24239444732666,-2.255337953567505
1715114152532193300,4.113193359375,1.2832920551300049,-8.087613105773926,-0.40701428055763245
1715114152542143200,4.123143310546875,4.754884719848633,-6.224924564361572,0.8954314589500427
1715114152552093200,4.13309326171875,6.315904140472412,-5.2672438621521,2.365471363067627
1715114152562043000,4.14304296875,5.439626216888428,-4.821922302246094,4.649539470672607
1715114152571992800,4.152992919921875,3.845088005065918,-4.687847137451172,6.517016887664795
1715114152581942800,4.16294287109375,1.6184803247451782,-4.989516258239746,8.365341186523438
1715114152591892700,4.172892822265625,-0.7374141216278076,-5.568912982940674,8.307879447937012
1715114152601842700,4.1828427734375,-0.5650315880775452,-5.674258232116699,6.124367713928223
1715114152611792600,4.192792724609375,0.22026655077934265,-5.324704647064209,3.9887399673461914
1715114152621742600,4.20274267578125,1.8339585065841675,-4.3622355461120605,2.82515811920166
1715114152631692500,4.212692626953125,3.600879430770874,-3.00711727142334,1.9105730056762695
1715114152641642500,4.222642578125,5.013458251953125,-1.8818424940109253,0.9050082564353943
1715114152651592400,4.232592529296875,5.736507415771484,-1.0007762908935547,0.2825157940387726
1715114152661542400,4.24254248046875,6.066906929016113,-0.4692635238170624,-0.23942017555236816
1715114152671492400,4.252492431640625,6.071695327758789,-0.2298433631658554,-1.2497732639312744
1715114152681442300,4.2624423828125,5.65031623840332,-0.1149216815829277,-2.2649147510528564
1715114152691392300,4.272392333984375,5.396530628204346,-0.2059013396501541,-3.3901896476745605
1715114152701342200,4.28234228515625,6.584054470062256,0.028730420395731926,-3.313575267791748
1715114152711292200,4.292292236328125,7.2783732414245605,0.06703764945268631,-2.499546527862549
1715114152721242000,4.3022421875,6.502651691436768,-0.7757213711738586,-3.313575267791748
1715114152731192000,4.312192138671875,5.061342239379883,-2.647987127304077,-4.845864295959473
1715114152741142000,4.32214208984375,-2.47560453414917,-5.602431774139404,-6.708553314208984
1715114152751092000,4.332092041015625,-26.278757095336914,-12.085929870605469,-10.070012092590332
1715114152761042000,4.3420419921875,-43.483489990234375,-24.875755310058594,-7.977479934692383
1715114152770991900,4.351991943359375,-27.834989547729492,-29.88921356201172,-4.458003520965576
1715114152780941800,4.36194189453125,-10.649409294128418,-24.24847412109375,1.0678139925003052
1715114152790891800,4.371891845703125,-8.111555099487305,-18.253393173217773,1.0965443849563599
1715114152800841700,4.381841796875,-7.55131196975708,-11.511322021484375,-0.028730420395731926
1715114152810791700,4.391791748046875,-8.269572257995605,-6.737283706665039,-2.427720546722412
1715114152820741600,4.40174169921875,-8.724471092224121,-5.583278179168701,-6.009446144104004
1715114152830691600,4.411691650390625,-8.973467826843262,-8.571242332458496,-10.836156845092773
1715114152840641500,4.4216416015625,-7.105990409851074,-13.39316463470459,-13.005303382873535
1715114152850591500,4.431591552734375,-4.213795185089111,-18.138471603393555,-13.934253692626953
1715114152860541400,4.44154150390625,1.4508862495422363,-19.215862274169922,-11.678915977478027
1715114152870491400,4.451491455078125,3.663128614425659,-15.806519508361816,-4.898536682128906
1715114152880441300,4.46144140625,4.702212333679199,-10.098742485046387,-0.31603461503982544
1715114152890391300,4.471391357421875,6.277596950531006,-5.621585369110107,-0.8523358106613159
1715114152900341200,4.48134130859375,5.808333396911621,-3.3662476539611816,-1.8387469053268433
1715114152910291200,4.491291259765625,5.032611846923828,-4.381389141082764,-4.381389141082764
1715114152920241200,4.5012412109375,7.307103633880615,-7.412448406219482,-6.445190906524658
1715114152930191000,4.511191162109375,10.639832496643066,-9.864110946655273,-5.999869346618652
1715114152940140800,4.521140869140625,11.44907283782959,-10.927136421203613,-4.151545524597168
1715114152950090800,4.5310908203125,10.486603736877441,-11.133037567138672,-2.853888511657715
1715114152960040700,4.541040771484375,8.145073890686035,-10.769119262695312,-1.9919757843017578
1715114152969990700,4.55099072265625,5.20978307723999,-10.539276123046875,-1.5753847360610962
1715114152979940400,4.5609404296875,2.322375535964966,-10.462661743164062,-1.0438719987869263
1715114152989890300,4.570890380859375,-0.3926490843296051,-10.754754066467285,0.24899697303771973
1715114152999840300,4.58084033203125,-2.408566951751709,-12.27267837524414,0.7661445140838623
1715114153009790200,4.590790283203125,-2.3032219409942627,-14.049175262451172,1.460463047027588
1715114153019740200,4.600740234375,1.0199298858642578,-14.293384552001953,4.079719543457031
1715114153029689900,4.61068994140625,4.098873138427734,-14.034810066223145,7.915230751037598
1715114153039639800,4.620639892578125,5.0469770431518555,-13.570335388183594,10.831368446350098
1715114153049589800,4.63058984375,1.436521053314209,-12.081141471862793,10.122684478759766
1715114153059539700,4.640539794921875,0.3016694188117981,-10.855310440063477,7.42681360244751
1715114153069489400,4.650489501953125,0.3208230137825012,-10.213664054870605,7.196970462799072
1715114153079439400,4.660439453125,-1.843535304069519,-9.591172218322754,6.277596950531006
1715114153089389300,4.670389404296875,-4.5825018882751465,-8.547300338745117,4.754884719848633
1715114153099339300,4.68033935546875,-7.043741226196289,-7.637503623962402,2.849100112915039
1715114153109289200,4.690289306640625,-7.1921820640563965,-7.086836814880371,0.3208230137825012
1715114153119239000,4.700239013671875,-4.525041103363037,-6.665457725524902,-2.8586769104003906
1715114153129188900,4.71018896484375,-1.9105730056762695,-6.938396453857422,-4.716577529907227
1715114153139138800,4.720138916015625,0.004788403399288654,-7.618350028991699,-5.0900726318359375
1715114153149088800,4.7300888671875,1.0534487962722778,-8.054094314575195,-4.371812343597412
1715114153159038500,4.74003857421875,1.9345149993896484,-8.015787124633789,-4.352658748626709
1715114153168988400,4.749988525390625,1.7812861204147339,-7.402871608734131,-3.7205893993377686
1715114153178938400,4.7599384765625,0.7709329724311829,-6.665457725524902,-1.479616641998291
1715114153188888300,4.769888427734375,1.0965443849563599,-6.852205276489258,-2.7724854946136475
1715114153198838300,4.77983837890625,0.6033388376235962,-7.728483200073242,-5.434837818145752
1715114153208788000,4.7897880859375,-6.766014099121094,-8.777143478393555,-8.269572257995605
1715114153218738000,4.799738037109375,-10.678139686584473,-9.557653427124023,-7.967903137207031
1715114153228688000,4.80968798828125,-6.497863292694092,-9.701305389404297,-4.620809078216553
1715114153238637800,4.819637939453125,-1.455674648284912,-10.338163375854492,-2.1164743900299072
1715114153248587500,4.82958740234375,1.0965443849563599,-11.487380027770996,-0.28730419278144836
1715114153258537500,4.839537353515625,1.1827356815338135,-12.593501091003418,1.7812861204147339
1715114153268487400,4.8494873046875,0.08619125932455063,-13.259089469909668,3.4955344200134277
1715114153278437400,4.859437255859375,-0.7948749661445618,-12.923900604248047,4.975151062011719
1715114153288387300,4.86938720703125,-1.3263877630233765,-12.574347496032715,6.36378812789917
1715114153298337300,4.879337158203125,-1.1348515748977661,-12.617443084716797,6.823474884033203
1715114153308287200,4.889287353515625,-0.22505496442317963,-12.559982299804688,7.086836814880371
1715114153318237200,4.8992373046875,0.38307225704193115,-12.665327072143555,7.086836814880371
1715114153328187100,4.909187255859375,-0.2059013396501541,-13.00051498413086,6.536170482635498
1715114153338137000,4.91913720703125,-1.1683704853057861,-13.388376235961914,5.966350555419922
1715114153348087000,4.929087158203125,-1.7956513166427612,-13.690045356750488,5.070919036865234
1715114153358036700,4.93903662109375,-2.2601263523101807,-13.838485717773438,3.4572272300720215
1715114153367986700,4.948986572265625,-4.146757125854492,-13.46020221710205,3.490746021270752
1715114153377936600,4.9589365234375,-5.722142219543457,-13.369222640991211,1.6328455209732056
1715114153387886600,4.968886474609375,-5.420472621917725,-13.249512672424316,-0.6129156351089478
1715114153397836500,4.97883642578125,-3.294421434402466,-13.24472427368164,-1.1875240802764893
1715114153407786500,4.988786376953125,-0.6607996821403503,-13.278243064880371,-0.181959331035614
1715114153417736400,4.998736328125,0.1867477297782898,-13.39316463470459,0.7182605266571045
1715114153427686400,5.008686279296875,0.8858546018600464,-13.627796173095703,-0.05267243832349777
1715114153437636400,5.01863623046875,2.47560453414917,-13.867216110229492,-1.37906014919281
1715114153447586300,5.02858642578125,4.113238334655762,-14.504074096679688,-2.829946517944336
1715114153457536300,5.038536376953125,5.382165431976318,-15.595829963684082,-3.754108190536499
1715114153467486200,5.048486328125,5.726930618286133,-16.75941276550293,-3.754108190536499
1715114153477436200,5.058436279296875,5.722142219543457,-17.808073043823242,-3.6343982219696045
1715114153487386000,5.06838623046875,5.808333396911621,-18.430564880371094,-3.950432777404785
1715114153497336000,5.078336181640625,5.415684223175049,-18.488025665283203,-4.299986362457275
1715114153507286000,5.0882861328125,0.9002198576927185,-18.53590965270996,-5.276820659637451
1715114153517236000,5.098236083984375,-5.152322292327881,-18.21987533569336,-6.847416877746582
1715114153527186000,5.10818603515625,-6.081272125244141,-16.563087463378906,-6.7708024978637695
1715114153537135900,5.118135986328125,-3.44765043258667,-13.685256958007812,-5.2911858558654785
1715114153547085800,5.1280859375,-0.43095630407333374,-10.845733642578125,-3.993528366088867
1715114153557035800,5.138035888671875,1.580173134803772,-8.336610794067383,-3.5721490383148193
1715114153566985700,5.14798583984375,3.1459810733795166,-6.200982570648193,-1.8387469053268433
1715114153576935700,5.157935791015625,4.10366153717041,-5.104437828063965,-1.1013327836990356
1715114153586885600,5.1678857421875,4.654327869415283,-4.065354347229004,1.0103530883789062
1715114153596835600,5.177835693359375,4.290409564971924,-3.1699230670928955,4.477157115936279
1715114153606785500,5.18778564453125,2.652775526046753,-3.4189200401306152,6.531382083892822
1715114153616735500,5.197735595703125,0.8044517636299133,-4.553771495819092,8.092401504516602
1715114153626685400,5.207685546875,-1.0582371950149536,-5.851428985595703,7.738059997558594
1715114153636635400,5.217635498046875,-0.45010992884635925,-5.975927352905273,5.224148273468018
1715114153646585300,5.22758544921875,0.9720458984375,-5.506663799285889,2.959233283996582
1715114153656535300,5.237535400390625,2.4420857429504395,-4.659116744995117,2.6240451335906982
1715114153666485200,5.2474853515625,3.2992098331451416,-3.7924153804779053,2.82515811920166
1715114153676435200,5.257435302734375,4.189853191375732,-2.9305028915405273,2.0015525817871094
1715114153686385200,5.26738525390625,4.865017890930176,-2.250549554824829,1.1827356815338135
1715114153696335000,5.277335205078125,5.018246650695801,-1.7525556087493896,0.2825157940387726
1715114153706285000,5.28728515625,5.348646640777588,-1.4317326545715332,-0.790086567401886
1715114153716235000,5.297235107421875,5.626373767852783,-1.2066776752471924,-1.2737152576446533
1715114153726185000,5.30718505859375,5.70777702331543,-0.9241618514060974,-0.9959878921508789
1715114153736135000,5.317135009765625,6.866570472717285,-1.0103530883789062,-0.5171475410461426
1715114153746084900,5.3270849609375,7.479485988616943,-1.5179238319396973,-0.8379706144332886
1715114153756034800,5.337034912109375,5.65031623840332,-2.6815059185028076,-2.8347349166870117
1715114153765984800,5.34698486328125,3.0550012588500977,-4.299986362457275,-4.855441093444824
1715114153775934700,5.356934814453125,-7.599195957183838,-6.742072105407715,-6.325480937957764
1715114153785884700,5.366884765625,-27.202919006347656,-12.588712692260742,-8.69095230102539
1715114153795834600,5.376834716796875,-38.08695983886719,-24.128765106201172,-13.88158130645752
1715114153805784600,5.38678466796875,-25.26361656188965,-25.804706573486328,-8.413225173950195
1715114153815734500,5.396734619140625,-10.32858657836914,-20.89659309387207,-1.3838485479354858
1715114153825684500,5.4066845703125,-8.738836288452148,-17.08023452758789,-0.4836287498474121
1715114153835634400,5.416634521484375,-9.787496566772461,-11.257535934448242,-1.2306196689605713
1715114153845584400,5.42658447265625,-9.026140213012695,-6.129156112670898,-3.3518824577331543
1715114153855534300,5.436534423828125,-7.934384346008301,-4.041412353515625,-6.009446144104004
1715114153865484300,5.446484375,-7.627926826477051,-5.95677375793457,-9.892841339111328
1715114153875434200,5.456434326171875,-5.353435039520264,-10.563218116760254,-12.239158630371094
1715114153885384200,5.46638427734375,-1.1061211824417114,-15.667655944824219,-13.737929344177246
1715114153895334100,5.476334228515625,4.908113479614258,-18.430564880371094,-12.72757625579834
1715114153905284000,5.4862841796875,5.348646640777588,-16.783353805541992,-7.393294811248779
1715114153915234000,5.496234130859375,0.8044517636299133,-13.0914945602417,0.1388636976480484
1715114153925184000,5.50618408203125,2.298433542251587,-10.022128105163574,2.365471363067627
1715114153935134000,5.516134033203125,5.2049946784973145,-7.4986395835876465,0.7086837291717529
1715114153945084000,5.526083984375,4.60165548324585,-6.339846134185791,-1.1252747774124146
1715114153955033900,5.536033935546875,2.47560453414917,-7.292738437652588,-3.8738183975219727
1715114153964983800,5.54598388671875,2.9448680877685547,-9.481039047241211,-6.493074893951416
1715114153974933800,5.555933837890625,6.607996463775635,-11.252747535705566,-7.015010833740234
1715114153984883500,5.565883544921875,8.959102630615234,-11.903970718383789,-5.123591423034668
1715114153994833400,5.57583349609375,8.944737434387207,-11.396400451660156,-2.4612393379211426
1715114154004783400,5.585783447265625,7.2783732414245605,-10.54406452178955,-1.824381709098816
1715114154014733300,5.5957333984375,5.037400245666504,-9.715670585632324,-2.0829553604125977
1715114154024683300,5.605683349609375,3.0406360626220703,-8.791508674621582,-1.5514427423477173
1715114154034633200,5.61563330078125,1.2258312702178955,-8.374917984008789,-0.6799532771110535
1715114154044583200,5.625583251953125,0.06224924325942993,-8.911218643188477,-0.3447650372982025
1715114154054533000,5.635533203125,-0.8858546018600464,-10.558429718017578,-0.49320554733276367
1715114154064483000,5.645483154296875,-1.091755986213684,-12.521675109863281,0.6512228846549988
1715114154074433000,5.65543310546875,1.9919757843017578,-13.129801750183105,4.60165548324585
1715114154084383000,5.665383056640625,5.851428985595703,-13.441048622131348,9.639056205749512
1715114154094333000,5.6753330078125,6.521805286407471,-13.589488983154297,11.769895553588867
1715114154104283000,5.685282958984375,-0.38307225704193115,-12.143390655517578,8.312667846679688
1715114154114232800,5.69523291015625,-1.7812861204147339,-10.228029251098633,5.6455278396606445
1715114154124182800,5.705182861328125,-0.2106897532939911,-9.289502143859863,6.368576526641846
1715114154134132700,5.7151328125,-1.0869675874710083,-8.547300338745117,5.4013190269470215
1715114154144082700,5.725082763671875,-3.2369606494903564,-8.221688270568848,3.7636849880218506
1715114154154032600,5.73503271484375,-5.161899089813232,-7.843404769897461,2.7485435009002686
1715114154163982600,5.744982666015625,-5.276820659637451,-7.407660007476807,1.1300631761550903
1715114154173932500,5.7549326171875,-3.2609026432037354,-7.393294811248779,-1.7477672100067139
1715114154183882500,5.764882568359375,-1.7190368175506592,-7.872135162353516,-4.256890773773193
1715114154193832400,5.77483251953125,-0.4405331015586853,-7.987056732177734,-4.932055473327637
1715114154203782400,5.784782470703125,0.37828385829925537,-7.589619159698486,-4.750096321105957
1715114154213732400,5.794732421875,0.6943184733390808,-6.9910688400268555,-4.213795185089111
1715114154223682300,5.804682373046875,-0.5363011956214905,-6.660669326782227,-2.7533318996429443
1715114154233632300,5.81463232421875,-3.4380736351013184,-6.856993675231934,-4.390965938568115
1715114154243582200,5.824582275390625,-7.383718013763428,-7.953537940979004,-8.638279914855957
1715114154253532200,5.8345322265625,-6.813898086547852,-8.868123054504395,-8.844181060791016
1715114154263482000,5.844482177734375,-2.3511061668395996,-9.102754592895508,-5.74129581451416
1715114154273432000,5.85443212890625,0.7805097699165344,-9.433155059814453,-2.341529369354248
1715114154283382000,5.864382080078125,1.6855180263519287,-10.414777755737305,0
1715114154293332000,5.87433203125,0.7805097699165344,-11.784260749816895,1.4987702369689941
1715114154303282000,5.884281982421875,-0.7852981686592102,-13.086706161499023,2.408566951751709
1715114154313232000,5.89423193359375,-1.9488801956176758,-14.010868072509766,3.35667085647583
1715114154323181800,5.904181884765625,-2.389413356781006,-14.317326545715332,4.821922302246094
1715114154333131800,5.9141318359375,-2.164358377456665,-14.13057804107666,6.244078159332275
1715114154343081700,5.924081787109375,-1.460463047027588,-13.85763931274414,7.33583402633667
1715114154353031700,5.93403173828125,-0.6224924325942993,-13.785813331604004,7.987056732177734
1715114154362981600,5.943981689453125,-0.3064578175544739,-13.848062515258789,8.609549522399902
1715114154372931600,5.953931640625,-0.7326257228851318,-13.97256088256836,8.638279914855957
1715114154382881500,5.963881591796875,-1.5849615335464478,-14.125789642333984,7.929595947265625
1715114154392831500,5.97383154296875,-2.22660756111145,-13.852850914001465,6.502651691436768
1715114154402781400,5.983781494140625,-2.6384103298187256,-12.741941452026367,5.60722017288208
1715114154412731100,5.993731201171875,-3.624821424484253,-12.085929870605469,3.9408559799194336
1715114154422681000,6.00368115234375,-4.175487995147705,-12.258312225341797,0.5602431893348694
1715114154432631000,6.013631103515625,-3.9647979736328125,-12.588712692260742,-1.9823989868164062
1715114154442581000,6.0235810546875,-3.002328872680664,-13.172897338867188,-3.2992098331451416
1715114154452531000,6.033531005859375,-1.599326729774475,-13.55118179321289,-3.155557870864868
1715114154462480600,6.043480712890625,-0.22505496442317963,-13.809755325317383,-1.8100165128707886
1715114154472430600,6.0534306640625,2.126051187515259,-14.36521053314209,-1.6424223184585571
1715114154482380500,6.063380615234375,4.51067590713501,-15.567099571228027,-1.9776105880737305
1715114154492330500,6.07333056640625,6.167463779449463,-17.20473289489746,-3.2082302570343018
1715114154502280200,6.0832802734375,7.062894821166992,-18.511966705322266,-4.481945514678955
1715114154512230100,6.093230224609375,7.402871608734131,-19.225439071655273,-5.013458251953125
1715114154522180000,6.10318017578125,7.292738437652588,-19.493589401245117,-4.285621166229248
1715114154532130000,6.113130126953125,7.671022415161133,-19.488801956176758,-5.439626216888428
1715114154542080000,6.123080078125,7.292738437652588,-18.65083122253418,-7.8529815673828125
1715114154552029700,6.13302978515625,-4.730942726135254,-17.26219367980957,-6.919242858886719
1715114154561979600,6.142979736328125,-11.133037567138672,-15.64371395111084,-6.92881965637207
1715114154571929600,6.1529296875,-7.445967197418213,-13.594277381896973,-6.938396453857422
1715114154581879600,6.162879638671875,-2.4803929328918457,-10.898406028747559,-5.195417881011963
1715114154591829200,6.172829345703125,0.9959878921508789,-7.915230751037598,-3.0406360626220703
1715114154601779200,6.182779296875,3.4811692237854004,-5.583278179168701,-1.0342950820922852
1715114154611729200,6.192729248046875,6.694188117980957,-4.692635536193848,-0.5410895943641663
1715114154621679000,6.20267919921875,7.168240070343018,-3.6343982219696045,2.1787235736846924
1715114154631629000,6.212629150390625,4.778826713562012,-2.920926094055176,4.323928356170654
1715114154641578800,6.222578857421875,2.7772738933563232,-3.4811692237854004,6.052541732788086
1715114154651528700,6.23252880859375,0.1149216815829277,-4.534617900848389,7.536946773529053
1715114154661478700,6.242478759765625,-1.2018892765045166,-5.722142219543457,8.336610794067383
1715114154671428600,6.2524287109375,-0.6512228846549988,-6.469132900238037,7.412448406219482
1715114154681378300,6.26237841796875,0.14365209639072418,-6.3063273429870605,5.65031623840332
1715114154691328300,6.272328369140625,1.2976573705673218,-5.57370138168335,3.2178070545196533
1715114154701278200,6.2822783203125,3.0550012588500977,-4.596867084503174,1.1013327836990356
1715114154711228200,6.292228271484375,5.161899089813232,-3.6296098232269287,0.6703764796257019
1715114154721178000,6.30217822265625,6.8378400802612305,-3.07415509223938,-0.10534487664699554
1715114154731128000,6.312128173828125,7.264008045196533,-2.7293899059295654,-1.4748282432556152
1715114154741078000,6.322078125,6.780379295349121,-2.456450939178467,-2.365471363067627
1715114154751028000,6.332028076171875,5.884947776794434,-2.2218191623687744,-2.9544448852539062
1715114154760978000,6.34197802734375,5.252878665924072,-1.8531121015548706,-3.2752678394317627
1715114154770927900,6.351927978515625,5.099649429321289,-1.6089035272598267,-3.5673606395721436
1715114154780877800,6.3618779296875,4.754884719848633,-1.4221558570861816,-3.2561142444610596
1715114154790827800,6.371827880859375,5.521028995513916,-1.6519991159439087,-2.279279947280884
1715114154800777700,6.38177783203125,5.406107425689697,-2.403778553009033,-2.935291290283203
1715114154810727700,6.391727783203125,0.272938996553421,-4.20421838760376,-5.57370138168335
1715114154820677600,6.401677734375,-19.488801956176758,-8.092401504516602,-8.480262756347656
1715114154830627600,6.411627685546875,-37.41179656982422,-17.56386375427246,-10.228029251098633
1715114154840577500,6.42157763671875,-39.705440521240234,-27.964275360107422,-9.586383819580078
1715114154850527500,6.431527587890625,-16.03636360168457,-27.198131561279297,-1.944091796875
1715114154860477400,6.4414775390625,-10.280701637268066,-22.744916915893555,0.7326257228851318
1715114154870427400,6.451427490234375,-11.611878395080566,-16.05072784423828,0.49799394607543945
1715114154880377300,6.46137744140625,-10.520122528076172,-7.977479934692383,-1.699883222579956
1715114154890327300,6.471327392578125,-7.8529815673828125,-2.8155810832977295,-3.9600095748901367
1715114154900277200,6.48127734375,-6.766014099121094,-0.8475474119186401,-5.559336185455322
1715114154910227200,6.491227294921875,-7.292738437652588,-1.9728221893310547,-7.891288757324219
1715114154920177200,6.50117724609375,-4.616020679473877,-6.497863292694092,-9.27034854888916
1715114154930127000,6.511127197265625,4.630385875701904,-12.301408767700195,-9.883264541625977
1715114154940077000,6.5210771484375,15.318102836608887,-16.745046615600586,-8.303091049194336
1715114154950027000,6.531027099609375,11.769895553588867,-18.875886917114258,-4.213795185089111
1715114154959977000,6.54097705078125,1.7381904125213623,-18.420988082885742,2.8778305053710938
1715114154969927000,6.550927001953125,-3.797203779220581,-16.912641525268555,3.28963303565979
1715114154979876900,6.560876953125,-2.9496564865112305,-12.765883445739746,-3.0550012588500977
1715114154989826800,6.570826904296875,-4.094084739685059,-8.777143478393555,-5.066130638122559
1715114154999776800,6.58077685546875,-2.0638017654418945,-7.972691535949707,-8.188169479370117
1715114155009726700,6.590726806640625,5.363011837005615,-8.437167167663574,-9.327810287475586
1715114155019676700,6.6006767578125,9.81143856048584,-8.513781547546387,-7.450755596160889
1715114155029626600,6.610626708984375,10.989385604858398,-8.676587104797363,-5.152322292327881
1715114155039576600,6.62057666015625,10.515334129333496,-9.040505409240723,-3.7924153804779053
1715114155049526500,6.630526611328125,8.916007041931152,-9.126696586608887,-2.782062292098999
1715114155059476500,6.6404765625,7.005434036254883,-9.198522567749023,-2.3271639347076416
1715114155069426400,6.650426513671875,5.056553840637207,-9.35654067993164,-1.843535304069519
1715114155079376400,6.66037646484375,3.490746021270752,-9.648633003234863,-1.3934253454208374
1715114155089326300,6.670326416015625,2.6431987285614014,-9.911994934082031,-0.9672574996948242
1715114155099276300,6.6802763671875,0.7182605266571045,-10.429142951965332,-0.9481038451194763
1715114155109226200,6.690226318359375,-1.4844050407409668,-11.44907283782959,-0.9959878921508789
1715114155119176200,6.70017626953125,-1.8148049116134644,-13.532028198242188,0.2585737705230713
1715114155129126100,6.710126220703125,0.5793967843055725,-14.48970890045166,3.7828385829925537
1715114155139076000,6.720076171875,3.1220390796661377,-14.599842071533203,6.809109687805176
1715114155149026000,6.730026123046875,2.5713725090026855,-13.97256088256836,8.916007041931152
1715114155158976000,6.73997607421875,-1.766920804977417,-11.645397186279297,7.594407558441162
1715114155168926000,6.749926025390625,0.7422025203704834,-9.950302124023438,8.317456245422363
1715114155178876000,6.7598759765625,1.0055646896362305,-9.543288230895996,8.528146743774414
1715114155188825900,6.769825927734375,-0.5363011956214905,-9.155426979064941,7.436390399932861
1715114155198775800,6.77977587890625,-2.896984100341797,-8.360552787780762,6.081272125244141
1715114155208725800,6.789725830078125,-5.233725070953369,-7.580042362213135,3.2800562381744385
1715114155218675700,6.79967578125,-5.257667064666748,-7.201758861541748,-0.1867477297782898
1715114155228625700,6.809625732421875,-3.993528366088867,-7.082048416137695,-3.1651346683502197
1715114155238575600,6.81957568359375,-2.3558945655822754,-7.091625213623047,-4.122815132141113
1715114155248525600,6.829525634765625,-1.173158884048462,-7.12035608291626,-4.218583583831787
1715114155258475500,6.8394755859375,-0.35913026332855225,-7.187393665313721,-4.5154643058776855
1715114155268425500,6.849425537109375,-0.2346317619085312,-7.158663272857666,-4.51067590713501
1715114155278375400,6.85937548828125,-1.216254472732544,-6.947973251342773,-3.706224203109741
1715114155288325000,6.8693251953125,-4.481945514678955,-7.134721279144287,-4.07014274597168
1715114155298275000,6.879275146484375,-7.838616371154785,-8.02536392211914,-5.861005783081055
1715114155308225000,6.88922509765625,-5.975927352905273,-9.026140213012695,-5.9088897705078125
1715114155318175000,6.899175048828125,-1.50355863571167,-10.093954086303711,-3.869029998779297
1715114155328125000,6.909125,1.2689268589019775,-11.209651947021484,-1.3551181554794312
1715114155338075000,6.919074951171875,1.5179238319396973,-12.406753540039062,0.6655880808830261
1715114155348024800,6.92902490234375,0.5267243981361389,-13.488932609558105,2.408566951751709
1715114155357974800,6.938974853515625,-0.689530074596405,-13.939042091369629,4.716577529907227
1715114155367924700,6.9489248046875,-1.6759412288665771,-13.51766300201416,6.665457725524902
1715114155377874700,6.958874755859375,-1.9105730056762695,-13.153743743896484,7.623138427734375
1715114155387824600,6.96882470703125,-1.192312479019165,-12.88559341430664,7.99184513092041
1715114155397774600,6.978774658203125,-0.33518823981285095,-12.804190635681152,8.192957878112793
1715114155407724500,6.988724609375,-0.47405192255973816,-12.890381813049316,8.461109161376953
1715114155417674500,6.998674560546875,-1.0438719987869263,-12.88559341430664,8.106766700744629
1715114155427624400,7.00862451171875,-1.2210428714752197,-13.0914945602417,6.349422931671143
1715114155437574400,7.018574462890625,-0.6177040338516235,-13.522451400756836,4.434061527252197
1715114155447524400,7.0285244140625,-0.363918662071228,-13.474567413330078,4.721365928649902
1715114155457474300,7.038474365234375,-0.272938996553421,-13.278243064880371,4.20421838760376
1715114155467424300,7.04842431640625,-0.6655880808830261,-13.374011039733887,1.235408067703247
1715114155477374200,7.058374267578125,-2.346317768096924,-13.273454666137695,-1.7142484188079834
1715114155487324200,7.06832421875,-4.213795185089111,-13.66610336303711,-4.113238334655762
1715114155497274000,7.078274169921875,-4.611232280731201,-13.73314094543457,-4.592078685760498
1715114155507224000,7.08822412109375,-3.0789434909820557,-13.354857444763184,-3.6966474056243896
1715114155517174000,7.098174072265625,-1.0630255937576294,-13.565546989440918,-3.2561142444610596
1715114155527124000,7.1081240234375,1.0055646896362305,-14.484920501708984,-2.806004285812378
1715114155537074000,7.118073974609375,2.7246015071868896,-15.82567310333252,-2.786850690841675
1715114155547024000,7.12802392578125,4.874594688415527,-17.391481399536133,-3.5051112174987793
1715114155556973800,7.137973876953125,7.038952827453613,-18.574216842651367,-4.395754337310791
1715114155566923800,7.147923828125,8.293514251708984,-19.19670867919922,-4.7405195236206055
1715114155576873700,7.157873779296875,8.949525833129883,-19.531896591186523,-5.07570743560791
1715114155586823700,7.16782373046875,9.524134635925293,-19.215862274169922,-6.675034523010254
1715114155596773600,7.177773681640625,8.882488250732422,-18.061857223510742,-8.523358345031738
1715114155606723600,7.1877236328125,4.774038314819336,-15.902287483215332,-9.107542991638184
1715114155616673500,7.197673583984375,-10.587160110473633,-13.94861888885498,-6.449979305267334
1715114155626623500,7.20762353515625,-10.807426452636719,-13.038822174072266,-6.631938934326172
1715114155636573400,7.217573486328125,-5.679046630859375,-11.051634788513184,-5.4252610206604
1715114155646523400,7.2275234375,-1.4317326545715332,-9.011775016784668,-3.4572272300720215
1715114155656473300,7.237473388671875,1.4173674583435059,-7.115567684173584,-1.920149803161621
1715114155666423300,7.24742333984375,4.314351558685303,-5.544970989227295,-1.139639973640442
1715114155676373200,7.257373291015625,7.086836814880371,-4.0078935623168945,1.1683704853057861
1715114155686323000,7.267322998046875,6.7708024978637695,-3.1651346683502197,4.525041103363037
1715114155696273000,7.27727294921875,5.152322292327881,-3.3518824577331543,7.489062786102295
1715114155706222800,7.287222900390625,2.4899697303771973,-4.525041103363037,9.945513725280762
1715114155716172800,7.2971728515625,-0.9385270476341248,-6.325480937957764,10.620678901672363
1715114155726122800,7.307122802734375,-1.436521053314209,-7.354987621307373,8.398859977722168
1715114155736072400,7.317072509765625,-0.2777273952960968,-6.818686485290527,5.219359874725342
1715114155746022400,7.3270224609375,1.2449848651885986,-5.688623428344727,3.002328872680664
1715114155755972400,7.336972412109375,2.806004285812378,-4.371812343597412,1.7956513166427612
1715114155765922300,7.34692236328125,4.223371982574463,-3.35667085647583,0.8954314589500427
1715114155775872000,7.3568720703125,5.214571475982666,-2.4803929328918457,-0.272938996553421
1715114155785822000,7.366822021484375,5.363011837005615,-1.7190368175506592,-1.6376339197158813
1715114155795772000,7.37677197265625,5.616796970367432,-1.1971008777618408,-2.6575639247894287
1715114155805721900,7.386721923828125,5.961562156677246,-0.8140285611152649,-2.719813108444214
1715114155815671800,7.396671875,5.544970989227295,-0.6512228846549988,-2.604891538619995
1715114155825621500,7.40662158203125,5.142745018005371,-0.9576807022094727,-3.1220390796661377
1715114155835571500,7.416571533203125,5.827486991882324,-0.9050082564353943,-2.738966703414917
1715114155845521400,7.426521484375,6.229712963104248,-1.2449848651885986,-2.8826189041137695
1715114155855471400,7.436471435546875,5.2672438621521,-2.164358377456665,-4.501099109649658
1715114155865421300,7.44642138671875,2.121262788772583,-3.9217023849487305,-6.655880928039551
1715114155875371000,7.45637109375,-10.338163375854492,-6.8809356689453125,-7.924807548522949
1715114155885321000,7.466321044921875,-29.027301788330078,-14.116212844848633,-8.5903959274292
1715114155895271000,7.47627099609375,-39.6192512512207,-25.51740264892578,-6.234501361846924
1715114155905220900,7.486220947265625,-20.317195892333984,-28.045679092407227,-3.270479440689087
1715114155915170600,7.496170654296875,-10.893617630004883,-23.506271362304688,-1.048660397529602
1715114155925120500,7.50612060546875,-12.29662036895752,-17.62611198425293,-1.4891934394836426
1715114155935070500,7.516070556640625,-11.439496040344238,-10.036493301391602,-1.9632453918457031
1715114155945020400,7.5260205078125,-8.858546257019043,-4.659116744995117,-3.4620156288146973
1715114155954970400,7.535970458984375,-6.732495307922363,-1.7860745191574097,-4.807557106018066
1715114155964920000,7.545920166015625,-6.311115741729736,-1.335964560508728,-6.244078159332275
1715114155974870000,7.5558701171875,-6.406883716583252,-3.931279182434082,-8.015787124633789
1715114155984820000,7.565820068359375,-3.600879430770874,-9.05487060546875,-9.313444137573242
1715114155994770000,7.57577001953125,4.347870349884033,-14.09705924987793,-9.155426979064941
1715114156004719600,7.5857197265625,11.233593940734863,-17.118541717529297,-7.240066051483154
1715114156014669600,7.595669677734375,8.724471092224121,-18.009185791015625,-3.974374771118164
1715114156024619500,7.60561962890625,-0.6991068720817566,-17.602170944213867,1.4413094520568848
1715114156034569500,7.615569580078125,-7.565677165985107,-17.38190460205078,2.078166961669922
1715114156044519400,7.62551953125,-4.865017890930176,-14.389152526855469,-3.7445313930511475
1715114156054469000,7.63546923828125,-2.5091233253479004,-10.371682167053223,-4.577713489532471
1715114156064419000,7.645419189453125,0.2298433631658554,-7.220912456512451,-4.9799394607543945
1715114156074369000,7.655369140625,7.196970462799072,-5.875370979309082,-4.4292731285095215
1715114156084319000,7.665319091796875,13.072340965270996,-6.598419666290283,-3.667917013168335
1715114156094269000,7.67526904296875,12.880805015563965,-7.795520782470703,-3.203441858291626
1715114156104219000,7.685218994140625,9.390059471130371,-8.552088737487793,-2.8347349166870117
1715114156114168800,7.6951689453125,6.4164605140686035,-9.126696586608887,-3.0789434909820557
1715114156124118800,7.705118896484375,4.754884719848633,-9.27034854888916,-2.868253707885742
1715114156134068700,7.71506884765625,2.9496564865112305,-9.074024200439453,-1.9105730056762695
1715114156144018700,7.725018798828125,1.6615760326385498,-9.38048267364502,-1.5849615335464478
1715114156153968600,7.73496875,1.1683704853057861,-10.108319282531738,-1.9488801956176758
1715114156163918600,7.744918701171875,-0.10534487664699554,-10.96544361114502,-1.6041151285171509
1715114156173868500,7.75486865234375,0.2825157940387726,-11.78904914855957,0.7805097699165344
1715114156183818500,7.764818603515625,4.194641590118408,-12.200851440429688,4.912901878356934
1715114156193768400,7.7747685546875,6.4164605140686035,-12.995726585388184,8.030152320861816
1715114156203718400,7.784718505859375,6.823474884033203,-13.340492248535156,8.944737434387207
1715114156213668400,7.79466845703125,6.5265936851501465,-13.043610572814941,9.361329078674316
1715114156223618300,7.804618408203125,0.9911994934082031,-11.578359603881836,6.033388137817383
1715114156233568300,7.814568359375,-2.011129379272461,-9.864110946655273,3.318363666534424
1715114156243518200,7.824518310546875,-3.5003228187561035,-9.93593692779541,4.668693542480469
1715114156253468200,7.83446826171875,-6.033388137817383,-10.022128105163574,4.7405195236206055
1715114156263418000,7.844418212890625,-8.121131896972656,-9.634267807006836,3.6296098232269287
1715114156273368000,7.8543681640625,-8.202534675598145,-9.02135181427002,0.8571242094039917
1715114156283318000,7.864318115234375,-5.583278179168701,-8.810662269592285,-2.6144683361053467
1715114156293268000,7.87426806640625,-2.4899697303771973,-8.686163902282715,-4.357447147369385
1715114156303218000,7.884218017578125,-0.6224924325942993,-8.389283180236816,-5.147533416748047
1715114156313168000,7.89416796875,0,-8.02536392211914,-4.960785865783691
1715114156323117800,7.904117919921875,-0.20111294090747833,-7.565677165985107,-4.127603530883789
1715114156333067800,7.91406787109375,-1.1971008777618408,-7.264008045196533,-3.2417490482330322
1715114156343017700,7.924017822265625,-4.098873138427734,-7.350199222564697,-3.974374771118164
1715114156352967700,7.9339677734375,-8.62391471862793,-8.02536392211914,-5.70777702331543
1715114156362917600,7.943917724609375,-8.317456245422363,-8.791508674621582,-4.970362663269043
1715114156372867600,7.95386767578125,-3.60566782951355,-9.327810287475586,-2.4660277366638184
1715114156382817500,7.963817626953125,0.3926490843296051,-9.787496566772461,0.06703764945268631
1715114156392767500,7.973767578125,2.0685901641845703,-10.342951774597168,1.8100165128707886
1715114156402717400,7.983717529296875,2.1499931812286377,-11.022904396057129,2.7533318996429443
1715114156412667400,7.99366748046875,0.9959878921508789,-11.635820388793945,3.1651346683502197
1715114156422617300,8.003617431640626,-0.2346317619085312,-12.00452709197998,3.3949780464172363
1715114156432567300,8.0135673828125,-1.1779472827911377,-12.076353073120117,4.036623954772949
1715114156442517200,8.023517333984374,-1.53707754611969,-11.966219902038574,5.080495834350586
1715114156452467200,8.03346728515625,-1.2497732639312744,-11.669339179992676,5.851428985595703
1715114156462417200,8.043417236328125,-0.8092401623725891,-11.587936401367188,6.157886981964111
1715114156472367000,8.0533671875,-0.6512228846549988,-11.875240325927734,6.449979305267334
1715114156482317000,8.063317138671875,-0.7661445140838623,-12.51209831237793,6.368576526641846
1715114156492267000,8.07326708984375,-1.3407529592514038,-13.417106628417969,5.583278179168701
1715114156502217000,8.083217041015626,-2.5665841102600098,-14.135366439819336,4.63517427444458
1715114156512167000,8.0931669921875,-4.046200752258301,-14.092270851135254,5.080495834350586
1715114156522116900,8.103116943359375,-4.065354347229004,-13.599065780639648,3.754108190536499
1715114156532066800,8.11306689453125,-3.160346269607544,-13.187262535095215,0.21547815203666687
1715114156542016800,8.123016845703125,-2.3989901542663574,-12.97657299041748,-2.03507137298584
1715114156551966500,8.132966552734375,-0.7805097699165344,-13.187262535095215,-2.518700122833252
1715114156561916400,8.14291650390625,0.07661445438861847,-13.646949768066406,-2.1356279850006104
1715114156571866400,8.152866455078126,-0.1867477297782898,-14.245500564575195,-1.3503297567367554
1715114156581816300,8.16281640625,0.15801730751991272,-15.174449920654297,-1.766920804977417
1715114156591766000,8.17276611328125,1.9057846069335938,-16.59181785583496,-2.9257144927978516
1715114156601716000,8.182716064453125,4.304774761199951,-18.30127716064453,-3.998316764831543
1715114156611666000,8.192666015625,6.555324077606201,-19.68512725830078,-4.644751071929932
1715114156621615900,8.202615966796875,8.030152320861816,-20.34592628479004,-4.616020679473877
1715114156631565800,8.21256591796875,8.379706382751465,-20.283676147460938,-3.801992416381836
1715114156641515500,8.222515625,8.848969459533691,-19.876663208007812,-4.32871675491333
1715114156651465500,8.232465576171874,9.418789863586426,-19.057846069335938,-7.311892032623291
1715114156661415400,8.24241552734375,8.604761123657227,-17.587804794311523,-10.065223693847656
1715114156671365400,8.252365478515625,1.0199298858642578,-14.599842071533203,-8.820239067077637
1715114156681315000,8.262315185546875,-12.516886711120605,-12.48815631866455,-5.521028995513916
1715114156691265000,8.27226513671875,-9.27034854888916,-11.511322021484375,-5.458779811859131
1715114156701215000,8.282215087890625,-3.648763418197632,-10.127472877502441,-4.525041103363037
1715114156711165000,8.2921650390625,0.3734954595565796,-8.188169479370117,-3.2609026432037354
1715114156721115000,8.302114990234376,2.5665841102600098,-6.210559368133545,-0.8044517636299133
1715114156731064600,8.312064697265624,4.156333923339844,-4.941632270812988,0.19632454216480255
1715114156741014500,8.3220146484375,5.372588634490967,-4.017470359802246,1.8100165128707886
1715114156750964500,8.331964599609375,5.305551052093506,-3.60566782951355,5.305551052093506
1715114156760914400,8.34191455078125,3.955221176147461,-3.993528366088867,7.8960771560668945
1715114156770864400,8.351864501953125,0.8092401623725891,-5.085284233093262,9.040505409240723
1715114156780814000,8.36181396484375,-1.5610195398330688,-6.62236213684082,8.307879447937012
1715114156790764000,8.371763916015626,-0.4165911078453064,-7.01979923248291,5.018246650695801
1715114156800714000,8.3817138671875,1.403002142906189,-5.736507415771484,3.184288263320923
1715114156810664000,8.391663818359374,2.7054479122161865,-4.3622355461120605,2.4420857429504395
1715114156820613600,8.401613525390625,3.600879430770874,-3.2369606494903564,1.766920804977417
1715114156830563600,8.4115634765625,4.003105163574219,-2.456450939178467,0.7996633648872375
1715114156840513500,8.421513427734375,4.314351558685303,-1.723825216293335,-0.08619125932455063
1715114156850463500,8.43146337890625,4.41969633102417,-1.0773907899856567,-0.8044517636299133
1715114156860413400,8.441413330078126,4.525041103363037,-0.3974374830722809,-1.5322890281677246
1715114156870363100,8.451363037109376,4.960785865783691,-0.2059013396501541,-1.8914192914962769
1715114156880313000,8.46131298828125,5.382165431976318,-0.43095630407333374,-1.8387469053268433
1715114156890263000,8.471262939453124,6.066906929016113,-0.7805097699165344,-2.3271639347076416
1715114156900213000,8.481212890625,6.406883716583252,-1.0678139925003052,-2.849100112915039
1715114156910162700,8.49116259765625,5.525817394256592,-1.6424223184585571,-3.825934410095215
1715114156920112600,8.501112548828125,2.494758129119873,-2.983175277709961,-5.410895824432373
1715114156930062600,8.5110625,-10.596736907958984,-5.932831764221191,-7.4555439949035645
1715114156940012500,8.521012451171876,-28.19890785217285,-12.923900604248047,-8.729259490966797
1715114156949962500,8.53096240234375,-38.74776077270508,-23.889345169067383,-6.200982570648193
1715114156959912200,8.540912109375,-20.374656677246094,-26.84379005432129,-2.786850690841675
1715114156969862100,8.550862060546875,-7.182605266571045,-22.615629196166992,-0.043095629662275314
1715114156979812000,8.56081201171875,-7.905653953552246,-16.802507400512695,-0.7038952708244324
1715114156989762000,8.570761962890625,-8.671798706054688,-10.022128105163574,-2.7293899059295654
1715114156999711700,8.580711669921875,-7.7763671875,-4.941632270812988,-5.717353820800781
1715114157009661700,8.59066162109375,-7.99184513092041,-2.1499931812286377,-8.11634349822998
1715114157019611600,8.600611572265626,-7.632715225219727,-1.436521053314209,-8.523358345031738
1715114157029561600,8.6105615234375,-7.297526836395264,-3.581725835800171,-9.390059471130371
1715114157039511600,8.620511474609375,-7.536946773529053,-9.370905876159668,-12.133813858032227
1715114157049461200,8.630461181640625,-3.821146011352539,-15.318102836608887,-14.408306121826172
1715114157059411200,8.6404111328125,2.4420857429504395,-19.282899856567383,-13.919888496398926
1715114157069361200,8.650361083984375,3.8115692138671875,-19.74737548828125,-9.040505409240723
1715114157079311000,8.66031103515625,1.5753847360610962,-16.8839111328125,-1.1540051698684692
1715114157089261000,8.670260986328126,3.6774938106536865,-11.645397186279297,4.146757125854492
1715114157099211000,8.6802109375,6.071695327758789,-7.95832633972168,1.9297266006469727
1715114157109161000,8.690160888671874,5.635950565338135,-7.465120792388916,-0.9816226959228516
1715114157119111000,8.70011083984375,5.559336185455322,-9.150638580322266,-4.491522312164307
1715114157129060900,8.710060791015625,5.722142219543457,-10.20887565612793,-5.870582580566406
1715114157139010800,8.7200107421875,7.2352776527404785,-10.644620895385742,-4.855441093444824
1715114157148960800,8.729960693359375,8.877699851989746,-10.72602367401123,-3.2848446369171143
1715114157158910700,8.73991064453125,8.355764389038086,-11.003750801086426,-2.8826189041137695
1715114157168860700,8.749860595703124,6.325480937957764,-10.663774490356445,-1.9584569931030273
1715114157178810600,8.759810546875,4.754884719848633,-10.146626472473145,-1.3551181554794312
1715114157188760600,8.769760498046875,4.165910720825195,-9.619902610778809,-0.4884171485900879
1715114157198710500,8.77971044921875,2.585737943649292,-9.457097053527832,0.2585737705230713
1715114157208660500,8.789660400390625,0.7805097699165344,-9.921571731567383,-0.14365209639072418
1715114157218610200,8.799610107421875,-0.6320692300796509,-11.142614364624023,-0.4692635238170624
1715114157228560100,8.80956005859375,-1.1683704853057861,-12.521675109863281,0.871489405632019
1715114157238510000,8.819510009765626,0.7709329724311829,-13.00051498413086,4.2090067863464355
1715114157248460000,8.8294599609375,3.1938650608062744,-13.30218505859375,7.4986395835876465
1715114157258410000,8.839409912109375,4.491522312164307,-13.273454666137695,9.758766174316406
1715114157268360000,8.84935986328125,0.17238251864910126,-12.176909446716309,8.87291145324707
1715114157278310000,8.859309814453125,-0.6560112833976746,-10.682928085327148,6.847416877746582
1715114157288259800,8.869259765625,-0.42616790533065796,-9.911994934082031,7.053318023681641
1715114157298209800,8.879209716796876,-2.7054479122161865,-9.452308654785156,6.574477672576904
1715114157308159700,8.88915966796875,-5.276820659637451,-8.71489429473877,4.4532151222229
1715114157318109700,8.899109619140624,-5.894524574279785,-7.924807548522949,2.2170307636260986
1715114157328059600,8.9090595703125,-4.54419469833374,-7.287950038909912,0.4596867263317108
1715114157338009600,8.919009521484375,-2.5953147411346436,-7.187393665313721,-1.4221558570861816
1715114157347959600,8.92895947265625,-0.42616790533065796,-7.4316020011901855,-3.2609026432037354
1715114157357909500,8.938909423828125,1.235408067703247,-7.762001991271973,-4.702212333679199
1715114157367859500,8.948859375,1.5514427423477173,-7.848193168640137,-5.037400245666504
1715114157377809400,8.958809326171876,1.1827356815338135,-7.800309181213379,-4.180276393890381
1715114157387759400,8.96875927734375,0.31603461503982544,-7.350199222564697,-1.647210717201233
1715114157397709300,8.978709228515624,0.05267243832349777,-7.220912456512451,-1.5610195398330688
1715114157407659300,8.9886591796875,0.29209262132644653,-7.680599212646484,-4.410119533538818
1715114157417609200,8.998609130859375,-4.199429988861084,-8.08282470703125,-7.048529624938965
1715114157427559200,9.00855908203125,-9.155426979064941,-8.877699851989746,-7.996633529663086
1715114157437509000,9.018509033203125,-7.2113356590271,-9.409213066101074,-5.568912982940674
1715114157447459000,9.028458984375,-2.719813108444214,-9.763554573059082,-2.7724854946136475
1715114157457409000,9.038408935546874,0.10534487664699554,-10.63504409790039,-1.2449848651885986
1715114157467359000,9.04835888671875,0.7134721279144287,-11.602301597595215,-0.07661445438861847
1715114157477309000,9.058308837890625,0.5171475410461426,-12.555193901062012,1.800439715385437
1715114157487259000,9.0682587890625,0.3495534360408783,-13.383587837219238,4.304774761199951
1715114157497208800,9.078208740234375,-0.5315127968788147,-13.752294540405273,6.445190906524658
1715114157507158500,9.088158447265625,-1.2018892765045166,-13.675680160522461,7.407660007476807
1715114157517108500,9.0981083984375,-1.1492167711257935,-13.330915451049805,7.781155586242676
1715114157527058400,9.108058349609376,-0.6751648783683777,-12.923900604248047,7.872135162353516
1715114157537008400,9.11800830078125,-0.4357447028160095,-12.799402236938477,8.101978302001953
1715114157546958300,9.127958251953125,-1.0055646896362305,-13.230358123779297,7.642292022705078
1715114157556908000,9.137907958984375,-1.7286136150360107,-13.608642578125,6.2392897605896
1715114157566858000,9.14785791015625,-2.2361843585968018,-13.867216110229492,4.764461517333984
1715114157576808000,9.157807861328125,-2.935291290283203,-13.225569725036621,5.276820659637451
1715114157586758000,9.1677578125,-2.715024709701538,-12.569559097290039,4.553771495819092
1715114157596707600,9.17770751953125,-2.0925323963165283,-12.751518249511719,1.723825216293335
1715114157606657500,9.187657470703124,-2.408566951751709,-13.096282958984375,-0.49320554733276367
1715114157616607500,9.197607421875,-2.4420857429504395,-13.311761856079102,-1.6328455209732056
1715114157626557400,9.207557373046875,-1.9153614044189453,-13.412318229675293,-2.5474305152893066
1715114157636507400,9.21750732421875,-1.3215993642807007,-13.201627731323242,-2.935291290283203
1715114157646457000,9.22745703125,-0.5027823448181152,-13.330915451049805,-3.222595453262329
1715114157656407000,9.237406982421875,0.8906430602073669,-13.967772483825684,-3.3231520652770996
1715114157666357000,9.24735693359375,2.0207061767578125,-15.150507926940918,-3.471592426300049
1715114157676307000,9.257306884765624,2.8395233154296875,-16.59181785583496,-3.5960910320281982
1715114157686256600,9.267256591796874,4.194641590118408,-17.875110626220703,-3.4811692237854004
1715114157696206600,9.27720654296875,6.138733386993408,-18.83757972717285,-2.8586769104003906
1715114157706156500,9.287156494140625,7.86734676361084,-19.531896591186523,-3.4189200401306152
1715114157716106500,9.2971064453125,9.437943458557129,-19.99637222290039,-5.276820659637451
1715114157726056400,9.307056396484375,10.065223693847656,-19.68991470336914,-7.608773231506348
1715114157736006100,9.317006103515626,9.284713745117188,-18.148048400878906,-8.729259490966797
1715114157745956000,9.3269560546875,0.8379706144332886,-14.987702369689941,-5.51624059677124
1715114157755906000,9.336906005859374,-10.773907661437988,-13.273454666137695,-2.341529369354248
1715114157765856000,9.34685595703125,-8.47547435760498,-11.942277908325195,-3.1316158771514893
1715114157775805700,9.3568056640625,-4.817133903503418,-10.213664054870605,-2.1547815799713135
1715114157785755600,9.366755615234375,-1.4844050407409668,-8.245630264282227,-0.7996633648872375
1715114157795705600,9.37670556640625,2.676717519760132,-6.071695327758789,1.7286136150360107
1715114157805655600,9.386655517578125,5.329493045806885,-5.468356609344482,2.978386878967285
1715114157815605500,9.39660546875,4.256890773773193,-5.2049946784973145,4.568136692047119
1715114157825555200,9.40655517578125,2.360682964324951,-5.252878665924072,6.675034523010254
1715114157835505200,9.416505126953124,1.436521053314209,-6.172252178192139,7.876923561096191
1715114157845455000,9.426455078125,0.09576806426048279,-7.043741226196289,7.738059997558594
1715114157855405000,9.436405029296875,-0.20111294090747833,-7.1921820640563965,6.36378812789917
1715114157865355000,9.44635498046875,0.5985504388809204,-6.62236213684082,5.109226226806641
1715114157875304700,9.4563046875,1.7477672100067139,-5.664681434631348,3.778050184249878
1715114157885254700,9.466254638671876,3.361459255218506,-4.869806289672852,2.6815059185028076
1715114157895204600,9.47620458984375,5.386953830718994,-4.017470359802246,1.7477672100067139
1715114157905154600,9.486154541015624,7.168240070343018,-2.9688100814819336,0.38307225704193115
1715114157915104300,9.496104248046874,8.456320762634277,-1.9776105880737305,-0.8619126081466675
1715114157925054200,9.50605419921875,8.863334655761719,-1.091755986213684,-1.5322890281677246
1715114157935004200,9.516004150390625,8.164227485656738,-0.20111294090747833,-2.0925323963165283
1715114157944954000,9.5259541015625,6.54574728012085,0.15801730751991272,-3.045424461364746
1715114157954904000,9.535904052734375,6.071695327758789,0.608127236366272,-4.07014274597168
1715114157964853800,9.545853759765626,6.560112476348877,0.9768342971801758,-4.3622355461120605
1715114157974803700,9.5558037109375,6.766014099121094,0.6320692300796509,-4.0078935623168945
1715114157984753700,9.565753662109374,7.364564418792725,-0.4357447028160095,-3.2609026432037354
1715114157994703600,9.57570361328125,4.242525577545166,-2.5713725090026855,-5.875370979309082
1715114158004653300,9.5856533203125,-11.080365180969238,-6.27280855178833,-11.013327598571777
1715114158014603300,9.595603271484375,-36.79888153076172,-14.906299591064453,-15.945383071899414
1715114158024553200,9.60555322265625,-45.0540885925293,-28.218061447143555,-9.289502143859863
1715114158034503200,9.615503173828126,-15.720328330993652,-29.908367156982422,-3.773261785507202
1715114158044453000,9.625453125,-10.745177268981934,-24.84702491760254,-1.6615760326385498
1715114158054402800,9.63540283203125,-13.330915451049805,-17.396268844604492,-1.0773907899856567
1715114158064352800,9.645352783203125,-10.539276123046875,-9.069235801696777,-1.2258312702178955
1715114158074302700,9.655302734375,-6.67982292175293,-3.155557870864868,-2.3032219409942627
1715114158084252700,9.665252685546875,-4.5394062995910645,0.043095629662275314,-3.5386300086975098
1715114158094202400,9.675202392578125,-5.238513469696045,-1.3838485479354858,-5.559336185455322
1715114158104152300,9.68515234375,-3.2082302570343018,-7.5848307609558105,-8.29830265045166
1715114158114102300,9.695102294921876,5.808333396911621,-14.949395179748535,-9.610325813293457
1715114158124052200,9.70505224609375,12.138602256774902,-19.3786678314209,-7.752425193786621
1715114158134002200,9.715002197265624,5.913678169250488,-20.47042465209961,-3.9408559799194336
1715114158143952100,9.7249521484375,-5.30076265335083,-18.330007553100586,1.4891934394836426
1715114158153902000,9.734902099609375,-5.774814605712891,-13.943830490112305,0.8906430602073669
1715114158163852000,9.74485205078125,-1.9823989868164062,-9.47146224975586,-3.0119056701660156
1715114158173802000,9.754802001953125,-1.0534487962722778,-6.89530086517334,-4.290409564971924
1715114158183752000,9.764751953125,1.173158884048462,-7.311892032623291,-6.746860504150391
1715114158193702000,9.774701904296874,7.690176010131836,-8.83939266204834,-8.034940719604492
1715114158203651800,9.78465185546875,11.592724800109863,-9.495404243469238,-5.870582580566406
1715114158213601800,9.794601806640625,11.81299114227295,-9.830592155456543,-3.6152446269989014
1715114158223551700,9.8045517578125,9.931148529052734,-10.02691650390625,-3.1316158771514893
1715114158233501700,9.814501708984375,6.947973251342773,-9.41400146484375,-2.403778553009033
1715114158243451600,9.82445166015625,5.535394191741943,-9.02135181427002,-1.6950948238372803
1715114158253401600,9.834401611328126,4.850652694702148,-9.097966194152832,-1.5514427423477173
1715114158263351600,9.8443515625,3.380612850189209,-9.41400146484375,-1.2258312702178955
1715114158273301500,9.854301513671874,0.9624691009521484,-10.194510459899902,-0.8954314589500427
1715114158283251500,9.86425146484375,-0.37828385829925537,-11.980585098266602,-0.15322890877723694
1715114158293201400,9.874201416015625,0.19632454216480255,-14.082694053649902,2.3702597618103027
1715114158303151400,9.8841513671875,2.403778553009033,-14.43224811553955,5.295974254608154
1715114158313101300,9.894101318359375,3.667917013168335,-14.384364128112793,6.751648902893066
1715114158323051300,9.90405126953125,0.646434485912323,-13.33570384979248,6.48828649520874
1715114158333001200,9.914001220703126,-3.552995204925537,-11.314997673034668,5.185841083526611
1715114158342951200,9.923951171875,-1.3982137441635132,-9.849745750427246,7.043741226196289
1715114158352901000,9.933901123046875,-1.6615760326385498,-8.87291145324707,6.89530086517334
1715114158362851000,9.94385107421875,-4.256890773773193,-8.47547435760498,4.869806289672852
1715114158372801000,9.953801025390625,-6.01423454284668,-7.90086555480957,3.0789434909820557
1715114158382751000,9.9637509765625,-5.5545477867126465,-7.201758861541748,0.4213795065879822
1715114158392701000,9.973700927734376,-3.663128614425659,-6.708553314208984,-1.680729627609253
1715114158402651000,9.98365087890625,-1.3215993642807007,-6.536170482635498,-3.19865345954895
1715114158412600800,9.993600830078124,0.608127236366272,-6.813898086547852,-3.9647979736328125
1715114158422550800,10.00355078125,1.6903064250946045,-7.043741226196289,-4.548983097076416
1715114158432500700,10.013500732421875,2.10210919380188,-7.067683219909668,-4.774038314819336
1715114158442450700,10.02345068359375,1.359906554222107,-6.947973251342773,-3.021482467651367
1715114158452400600,10.033400634765625,0.6943184733390808,-7.5848307609558105,-2.738966703414917
1715114158462350600,10.0433505859375,1.2258312702178955,-8.580819129943848,-4.654327869415283
1715114158472300500,10.053300537109376,-0.090979665517807,-9.30386734008789,-5.420472621917725
1715114158482250500,10.06325048828125,-10.228029251098633,-9.945513725280762,-6.449979305267334
1715114158492200400,10.073200439453124,-13.263877868652344,-10.357316970825195,-5.008669853210449
1715114158502150400,10.083150390625,-6.071695327758789,-10.122684478759766,-2.432508945465088
1715114158512100000,10.09310009765625,0.004788403399288654,-10.54406452178955,-0.6512228846549988
1715114158522050000,10.103050048828125,2.557007312774658,-11.63103199005127,1.7764976024627686
1715114158532000000,10.113,2.0446481704711914,-12.890381813049316,5.200206279754639
1715114158541950000,10.122949951171876,0.6129156351089478,-13.761871337890625,7.469909191131592
1715114158551900000,10.13289990234375,-0.4405331015586853,-14.121001243591309,7.99184513092041
1715114158561849600,10.142849609375,-0.9481038451194763,-14.499285697937012,7.704541206359863
1715114158571799600,10.152799560546875,-1.139639973640442,-14.647726058959961,7.072471618652344
1715114158581749500,10.16274951171875,-2.0254945755004883,-14.628572463989258,6.081272125244141
1715114158591699500,10.172699462890625,-2.873042106628418,-14.633360862731934,5.4013190269470215
1715114158601649200,10.182649169921875,-3.141192674636841,-14.628572463989258,5.473145008087158
1715114158611599000,10.19259912109375,-2.7246015071868896,-14.504074096679688,6.004657745361328
1715114158621549000,10.202549072265626,-1.4413094520568848,-14.417882919311523,7.134721279144287
1715114158631499000,10.2124990234375,-0.31124621629714966,-14.207192420959473,6.114790916442871
1715114158641449000,10.222448974609375,-0.8092401623725891,-13.287819862365723,2.408566951751709
1715114158651398700,10.232398681640625,-2.806004285812378,-12.612654685974121,-0.8236053586006165
1715114158661348600,10.2423486328125,-3.5482068061828613,-12.526463508605957,-2.360682964324951
1715114158671298600,10.252298583984375,-1.699883222579956,-12.449849128723145,-2.8586769104003906
1715114158681248500,10.26224853515625,-0.1388636976480484,-12.54561710357666,-2.8107926845550537
1715114158691198200,10.2721982421875,0.6272808313369751,-13.230358123779297,-2.671929121017456
1715114158701148200,10.282148193359374,1.680729627609253,-14.733917236328125,-3.471592426300049
1715114158711098000,10.29209814453125,3.2417490482330322,-16.65406608581543,-4.3622355461120605
1715114158721048000,10.302048095703125,4.592078685760498,-18.449718475341797,-4.4292731285095215
1715114158730998000,10.311998046875,5.521028995513916,-19.426551818847656,-3.7924153804779053
1715114158740947700,10.32194775390625,7.762001991271973,-19.881450653076172,-5.2911858558654785
1715114158750897700,10.331897705078125,10.050858497619629,-19.661184310913086,-8.183381080627441
1715114158760847600,10.34184765625,10.35252857208252,-18.210298538208008,-9.75397777557373
1715114158770797600,10.351797607421876,7.819462776184082,-15.91665267944336,-8.71489429473877
1715114158780747300,10.361747314453124,1.4700398445129395,-13.532028198242188,-6.36378812789917
1715114158790697200,10.371697265625,-9.576807022094727,-12.459425926208496,-4.247313976287842
1715114158800647200,10.381647216796875,-7.752425193786621,-11.75553035736084,-4.73573112487793
1715114158810597000,10.39159716796875,-3.5721490383148193,-10.467450141906738,-3.045424461364746
1715114158820547000,10.401547119140625,-0.828393816947937,-8.844181060791016,-1.1540051698684692
1715114158830496800,10.411496826171875,1.1683704853057861,-7.230489253997803,-0.272938996553421
1715114158840446700,10.42144677734375,3.5913026332855225,-5.985504150390625,-0.44532153010368347
1715114158850396700,10.431396728515624,5.899312973022461,-4.750096321105957,0.9528923034667969
1715114158860346600,10.4413466796875,5.942408561706543,-4.065354347229004,4.726154327392578
1715114158870296300,10.45129638671875,3.9264907836914062,-4.788403511047363,6.909666061401367
1715114158880246300,10.461246337890625,0.8954314589500427,-5.549759387969971,8.47547435760498
1715114158890196200,10.4711962890625,-1.0438719987869263,-6.775590896606445,8.101978302001953
1715114158900146200,10.481146240234375,-0.5363011956214905,-7.139509677886963,5.51624059677124
1715114158910096100,10.49109619140625,0.9911994934082031,-6.119579315185547,3.4141316413879395
1715114158920045800,10.5010458984375,2.255337953567505,-4.683058738708496,2.049436569213867
1715114158929995800,10.510995849609374,3.332728862762451,-3.3231520652770996,1.3455413579940796
1715114158939945700,10.52094580078125,4.137180328369141,-2.2170307636260986,0.5650315880775452
1715114158949895700,10.530895751953125,4.745307922363281,-1.2832920551300049,-0.33997663855552673
1715114158959845600,10.540845703125,4.869806289672852,-0.6129156351089478,-0.5841852426528931
1715114158969795300,10.55079541015625,5.272032260894775,-0.1867477297782898,-1.115697979927063
1715114158979745300,10.560745361328125,5.6455278396606445,-0.3495534360408783,-1.7094600200653076
1715114158989695200,10.5706953125,5.228936672210693,-0.9385270476341248,-2.0446481704711914
1715114158999645200,10.580645263671874,4.639962673187256,-1.7046716213226318,-2.451662540435791
1715114159009595000,10.590594970703124,4.807557106018066,-2.0638017654418945,-2.3271639347076416
1715114159019544800,10.600544921875,4.649539470672607,-2.4420857429504395,-3.0597896575927734
1715114159029494800,10.610494873046875,3.318363666534424,-2.920926094055176,-4.438849925994873
1715114159039444700,10.62044482421875,-3.1651346683502197,-4.371812343597412,-5.3582234382629395
1715114159049394700,10.630394775390625,-19.211074829101562,-8.853757858276367,-6.617573261260986
1715114159059344600,10.6403447265625,-31.598674774169922,-17.30529022216797,-8.159439086914062
1715114159069294600,10.650294677734376,-30.602685928344727,-24.79914093017578,-7.503427982330322
1715114159079244500,10.66024462890625,-14.94460678100586,-24.65070152282715,-0.9768342971801758
1715114159089194500,10.670194580078125,-9.706093788146973,-20.88701629638672,0.8858546018600464
1715114159099144400,10.68014453125,-9.308655738830566,-14.939818382263184,0.9481038451194763
1715114159109094400,10.690094482421875,-7.95832633972168,-8.868123054504395,-1.072602391242981
1715114159119044400,10.70004443359375,-6.18182897567749,-4.764461517333984,-4.113238334655762
1715114159128994300,10.709994384765626,-4.333505153656006,-2.0590133666992188,-5.937620162963867
1715114159138944300,10.7199443359375,-4.989516258239746,-0.5889736413955688,-6.574477672576904
1715114159148894200,10.729894287109374,-5.420472621917725,-2.1595699787139893,-7.422025203704834
1715114159158844200,10.73984423828125,-3.624821424484253,-8.039729118347168,-9.437943458557129
1715114159168794000,10.749794189453125,4.3191399574279785,-14.992490768432617,-12.277466773986816
1715114159178744000,10.759744140625,10.309432983398438,-19.531896591186523,-11.085153579711914
1715114159188694000,10.769694091796875,5.760449409484863,-20.52788543701172,-6.2632317543029785
1715114159198644000,10.77964404296875,-4.548983097076416,-19.962854385375977,0.17717093229293823
1715114159208593700,10.78959375,-9.150638580322266,-18.368314743041992,0.3064578175544739
1715114159218543600,10.799543701171874,-3.3949780464172363,-12.627019882202148,-1.824381709098816
1715114159228493600,10.80949365234375,-0.35434186458587646,-7.3885064125061035,-2.4660277366638184
1715114159238443500,10.819443603515625,0.5554547905921936,-4.654327869415283,-3.9169139862060547
1715114159248393500,10.8293935546875,5.2480902671813965,-5.1810526847839355,-5.736507415771484
1715114159258343400,10.839343505859375,10.433931350708008,-7.105990409851074,-5.774814605712891
1715114159268293400,10.84929345703125,11.602301597595215,-8.93037223815918,-4.898536682128906
1715114159278243300,10.859243408203126,10.821791648864746,-9.457097053527832,-3.28963303565979
1715114159288193300,10.869193359375,8.791508674621582,-9.346963882446289,-2.030282974243164
1715114159298143200,10.879143310546874,6.358999729156494,-9.399636268615723,-2.2649147510528564
1715114159308093200,10.88909326171875,4.137180328369141,-9.255983352661133,-2.006340980529785
1715114159318043100,10.899043212890625,1.9393033981323242,-9.107542991638184,-1.3024457693099976
1715114159327993000,10.9089931640625,-0.2537853717803955,-9.437943458557129,-1.1109095811843872
1715114159337943000,10.918943115234375,-2.145204782485962,-10.912771224975586,-1.1635819673538208
1715114159347893000,10.92889306640625,-2.676717519760132,-12.45463752746582,0.14844051003456116
1715114159357843000,10.938843017578124,0.689530074596405,-12.866439819335938,4.098873138427734
1715114159367793000,10.94879296875,4.079719543457031,-13.206416130065918,7.508216381072998
1715114159377742800,10.958742919921875,5.023035049438477,-13.225569725036621,8.489839553833008
1715114159387692800,10.96869287109375,1.2018892765045166,-12.047622680664062,7.096413612365723
1715114159397642800,10.978642822265625,0.5746083855628967,-10.165780067443848,6.344634532928467
1715114159407592700,10.9885927734375,0.4596867263317108,-9.318233489990234,7.177816867828369
1715114159417542700,10.998542724609376,-1.6759412288665771,-9.169792175292969,6.157886981964111
1715114159427492600,11.00849267578125,-3.687070608139038,-8.686163902282715,4.371812343597412
1715114159437442600,11.018442626953124,-4.1180267333984375,-7.95832633972168,2.3989901542663574
1715114159447392500,11.028392578125,-3.2321722507476807,-7.33583402633667,0.19632454216480255
1715114159457342500,11.038342529296875,-2.322375535964966,-7.350199222564697,-1.699883222579956
1715114159467292400,11.04829248046875,-0.9672574996948242,-7.675810813903809,-3.1028854846954346
1715114159477242400,11.058242431640625,0.6751648783683777,-8.078036308288574,-4.343081951141357
1715114159487192300,11.0681923828125,1.9153614044189453,-8.322244644165039,-5.137956619262695
1715114159497142300,11.078142333984376,1.216254472732544,-8.398859977722168,-4.180276393890381
1715114159507092200,11.08809228515625,-1.1540051698684692,-8.40843677520752,-5.363011837005615
1715114159517042200,11.098042236328125,-7.005434036254883,-8.595184326171875,-10.357316970825195
1715114159526992100,11.1079921875,-10.735600471496582,-8.954314231872559,-12.559982299804688
1715114159536942000,11.117942138671875,-6.584054470062256,-8.59997272491455,-8.93037223815918
1715114159546891800,11.127891845703125,-1.173158884048462,-7.977479934692383,-4.7836151123046875
1715114159556841700,11.137841796875,2.0207061767578125,-8.523358345031738,-1.8722656965255737
1715114159566791700,11.147791748046876,2.4899697303771973,-9.710882186889648,0.07182604819536209
1715114159576741600,11.15774169921875,0.9050082564353943,-10.979808807373047,1.7142484188079834
1715114159586691300,11.16769140625,-1.1109095811843872,-12.291831970214844,3.064578056335449
1715114159596641300,11.177641357421875,-2.207453966140747,-13.498509407043457,4.271255970001221
1715114159606591200,11.18759130859375,-2.2601263523101807,-14.149731636047363,6.038176536560059
1715114159616541200,11.197541259765625,-1.556231141090393,-14.202404022216797,8.020575523376465
1715114159626491100,11.2074912109375,-0.6991068720817566,-13.996502876281738,9.117119789123535
1715114159636440800,11.21744091796875,0.24899697303771973,-13.675680160522461,9.399636268615723
1715114159646390800,11.227390869140624,0.7326257228851318,-13.55118179321289,9.21288776397705
1715114159656340700,11.2373408203125,0.24899697303771973,-13.464990615844727,8.379706382751465
1715114159666290700,11.247290771484375,-0.608127236366272,-13.278243064880371,7.292738437652588
1715114159676240400,11.257240478515625,-1.3263877630233765,-12.899958610534668,6.473921298980713
1715114159686190300,11.2671904296875,-2.054224967956543,-12.229581832885742,6.890512466430664
1715114159696140300,11.277140380859375,-2.6384103298187256,-12.205639839172363,4.654327869415283
1715114159706090200,11.28709033203125,-3.2130186557769775,-12.746729850769043,0.7661445140838623
1715114159716040200,11.297040283203126,-3.883395195007324,-13.0914945602417,-2.2170307636260986
1715114159725990000,11.306989990234374,-3.950432777404785,-13.737929344177246,-3.60566782951355
1715114159735939800,11.31693994140625,-2.580949544906616,-13.900734901428223,-3.576937437057495
1715114159745889800,11.326889892578125,-0.6607996821403503,-13.656526565551758,-2.8874073028564453
1715114159755839700,11.33683984375,0.8571242094039917,-13.876792907714844,-2.097320795059204
1715114159765789700,11.346789794921875,2.341529369354248,-14.336480140686035,-1.9919757843017578
1715114159775739400,11.356739501953125,3.7445313930511475,-15.346833229064941,-2.4468741416931152
1715114159785689300,11.366689453125,4.850652694702148,-16.64927864074707,-2.9975404739379883
1715114159795639300,11.376639404296874,5.750872611999512,-17.56865119934082,-3.3470940589904785
1715114159805589200,11.38658935546875,6.555324077606201,-18.282123565673828,-3.8067808151245117
1715114159815539000,11.3965390625,7.264008045196533,-18.875886917114258,-4.553771495819092
1715114159825489000,11.406489013671875,8.04930591583252,-19.177555084228516,-5.621585369110107
1715114159835438800,11.41643896484375,8.576030731201172,-18.444929122924805,-7.46033239364624
1715114159845388800,11.426388916015625,3.797203779220581,-16.213533401489258,-7.642292022705078
1715114159855338800,11.4363388671875,-9.624691009521484,-14.168885231018066,-5.066130638122559
1715114159865288400,11.446288330078126,-8.949525833129883,-12.789825439453125,-4.941632270812988
1715114159875238400,11.45623828125,-4.5154643058776855,-10.903194427490234,-3.313575267791748
1715114159885188400,11.466188232421874,-1.2497732639312744,-8.504204750061035,-1.2880805730819702
1715114159895138300,11.47613818359375,2.3702597618103027,-6.631938934326172,0.10055647045373917
1715114159905088000,11.486087890625,5.415684223175049,-5.185841083526611,1.6089035272598267
1715114159915038000,11.496037841796875,5.688623428344727,-4.5825018882751465,3.423708438873291
1715114159924988000,11.50598779296875,4.683058738708496,-4.247313976287842,5.243301868438721
1715114159934937900,11.515937744140626,3.4332852363586426,-4.395754337310791,6.909666061401367
1715114159944887800,11.5258876953125,1.7908629179000854,-5.185841083526611,8.279149055480957
1715114159954837500,11.53583740234375,-0.5267243981361389,-6.27280855178833,7.627926826477051
1715114159964787500,11.545787353515625,-0.6607996821403503,-6.7277069091796875,6.081272125244141
1715114159974737400,11.5557373046875,0.8810662031173706,-6.2392897605896,4.32871675491333
1715114159984687400,11.565687255859375,3.021482467651367,-5.530605792999268,2.75812029838562
1715114159994637000,11.575636962890625,4.8602294921875,-4.841075897216797,1.6184803247451782
1715114160004587000,11.5855869140625,5.803544998168945,-4.1611223220825195,0.4118026793003082
1715114160014537000,11.595536865234376,6.248866558074951,-3.509899616241455,-0.7374141216278076
1715114160024487000,11.60548681640625,6.555324077606201,-2.762908697128296,-1.5705963373184204
1715114160034436900,11.615436767578124,6.631938934326172,-2.1739351749420166,-2.1787235736846924
1715114160044386600,11.625386474609375,6.315904140472412,-1.5849615335464478,-2.2888567447662354
1715114160054336500,11.63533642578125,5.5114521980285645,-1.4413094520568848,-2.6192567348480225
1715114160064286500,11.645286376953125,5.434837818145752,-1.3694833517074585,-3.265691041946411
1715114160074236400,11.655236328125,6.234501361846924,-1.278503656387329,-3.294421434402466
1715114160084186400,11.665186279296876,6.703764915466309,-1.4700398445129395,-3.9025487899780273
1715114160094136300,11.67513623046875,5.243301868438721,-2.403778553009033,-5.568912982940674
1715114160104086300,11.685086181640624,-0.8379706144332886,-4.553771495819092,-7.417236804962158
1715114160114036200,11.6950361328125,-20.365079879760742,-8.968679428100586,-9.835380554199219
1715114160123986200,11.704986083984375,-38.589744567871094,-18.325220108032227,-10.012551307678223
1715114160133936000,11.71493603515625,-31.756690979003906,-26.74323272705078,-6.564900875091553
1715114160143886000,11.724885986328125,-11.338939666748047,-24.157495498657227,-1.216254472732544
1715114160153836000,11.7348359375,-10.563218116760254,-19.421764373779297,0.8523358106613159
1715114160163786000,11.744785888671874,-11.075576782226562,-13.129801750183105,0.5171475410461426
1715114160173736000,11.75473583984375,-8.935160636901855,-7.441178798675537,-0.9768342971801758
1715114160183686000,11.764685791015625,-6.564900875091553,-3.907337188720703,-2.671929121017456
1715114160193635800,11.7746357421875,-6.01423454284668,-2.6431987285614014,-4.989516258239746
1715114160203585800,11.784585693359375,-6.737283706665039,-5.20978307723999,-8.236053466796875
1715114160213535700,11.79453564453125,-3.73016619682312,-10.884040832519531,-10.65898609161377
1715114160223485700,11.804485595703126,3.471592426300049,-16.47210693359375,-12.765883445739746
1715114160233435600,11.814435546875,7.580042362213135,-18.58379364013672,-11.18092155456543
1715114160243385600,11.824385498046874,2.609679937362671,-17.38669204711914,-6.962338447570801
1715114160253335600,11.83433544921875,-2.6431987285614014,-14.79616641998291,-2.494758129119873
1715114160263285500,11.844285400390625,-2.5522189140319824,-11.468226432800293,-2.341529369354248
1715114160273235500,11.8542353515625,-0.8906430602073669,-8.403648376464844,-3.3901896476745605
1715114160283185400,11.864185302734375,0.023942016065120697,-7.364564418792725,-3.8355112075805664
1715114160293135400,11.87413525390625,3.2321722507476807,-8.47547435760498,-4.8602294921875
1715114160303085300,11.884085205078126,8.705317497253418,-9.346963882446289,-3.643975019454956
1715114160313035300,11.89403515625,12.378023147583008,-9.318233489990234,-1.0007762908935547
1715114160322985200,11.903985107421875,11.425130844116211,-9.557653427124023,-0.7709329724311829
1715114160332935200,11.91393505859375,9.284713745117188,-9.682151794433594,-1.0582371950149536
1715114160342885000,11.923885009765625,6.67982292175293,-9.653421401977539,-1.1971008777618408
1715114160352835000,11.9338349609375,3.691859006881714,-9.825803756713867,-1.9297266006469727
1715114160362785000,11.943784912109376,1.1109095811843872,-9.739612579345703,-1.5466543436050415
1715114160372735000,11.95373486328125,-1.0534487962722778,-10.323798179626465,-1.1013327836990356
1715114160382685000,11.963684814453124,-2.0590133666992188,-11.903970718383789,-0.3974374830722809
1715114160392635000,11.973634765625,-0.507570743560791,-13.10107135772705,1.5897499322891235
1715114160402584800,11.983584716796875,3.3231520652770996,-13.139378547668457,5.449203014373779
1715114160412534800,11.99353466796875,5.746084213256836,-13.129801750183105,8.571242332458496
1715114160422484700,12.003484619140625,7.091625213623047,-13.00051498413086,10.63504409790039
1715114160432434700,12.0134345703125,6.8378400802612305,-12.564770698547363,10.994174003601074
1715114160442384600,12.023384521484376,2.4372973442077637,-10.539276123046875,6.48828649520874
1715114160452334600,12.03333447265625,-1.2880805730819702,-8.858546257019043,3.1459810733795166
1715114160462284500,12.043284423828124,-4.797980308532715,-8.882488250732422,2.676717519760132
1715114160472234500,12.053234375,-7.857769966125488,-8.547300338745117,1.824381709098816
1715114160482184400,12.063184326171875,-9.165003776550293,-8.010998725891113,1.3455413579940796
1715114160492134400,12.073134521484375,-8.11634349822998,-7.450755596160889,-0.014365210197865963
1715114160502084400,12.08308447265625,-5.39174222946167,-7.469909191131592,-3.07415509223938
1715114160512034000,12.093033935546876,-2.4660277366638184,-8.14028549194336,-5.339069843292236
1715114160521984000,12.10298388671875,0.06224924325942993,-8.360552787780762,-5.851428985595703
1715114160531934000,12.112933837890624,1.900996208190918,-7.747636795043945,-5.521028995513916
1715114160541884000,12.1228837890625,1.824381709098816,-7.206547260284424,-4.367023944854736
1715114160551833900,12.132833740234375,1.0199298858642578,-6.675034523010254,-2.537853717803955
1715114160561783600,12.142783447265625,1.091755986213684,-6.646304130554199,-3.667917013168335
1715114160571733500,12.1527333984375,1.1540051698684692,-7.225700855255127,-5.027823448181152
1715114160581683500,12.162683349609376,-0.9672574996948242,-7.987056732177734,-5.377377033233643
1715114160591633400,12.17263330078125,-8.303091049194336,-9.399636268615723,-5.612008571624756
1715114160601583000,12.1825830078125,-8.801085472106934,-10.438719749450684,-4.261679172515869
1715114160611533000,12.192532958984375,-4.0749311447143555,-10.788272857666016,-2.2218191623687744
1715114160621483000,12.20248291015625,-0.5937620401382446,-11.200075149536133,-0.7230489253997803
1715114160631433000,12.212432861328125,0.7038952708244324,-11.707646369934082,0.6943184733390808
1715114160641383000,12.2223828125,0.8331822156906128,-12.191274642944336,2.432508945465088
1715114160651332600,12.23233251953125,0.45010992884635925,-12.483367919921875,3.931279182434082
1715114160661282600,12.242282470703126,-0.2106897532939911,-12.502521514892578,5.286397457122803
1715114160671232500,12.252232421875,-0.790086567401886,-12.559982299804688,6.809109687805176
1715114160681182500,12.262182373046874,-1.0007762908935547,-12.856863021850586,7.762001991271973
1715114160691132200,12.272132080078125,-0.9097966551780701,-13.144166946411133,8.130708694458008
1715114160701082000,12.28208203125,-0.6129156351089478,-13.33570384979248,8.087613105773926
1715114160711032000,12.292031982421875,-0.35434186458587646,-13.742717742919922,7.292738437652588
1715114160720982000,12.30198193359375,-0.4836287498474121,-14.197615623474121,5.980715751647949
1715114160730932000,12.311931884765626,-0.9576807022094727,-14.499285697937012,4.802768707275391
1715114160740881700,12.321881591796876,-2.097320795059204,-14.058752059936523,5.152322292327881
1715114160750831600,12.33183154296875,-3.2417490482330322,-13.163320541381836,5.453991413116455
1715114160760781600,12.341781494140625,-3.179499864578247,-13.00051498413086,2.408566951751709
1715114160770731500,12.3517314453125,-3.160346269607544,-12.895170211791992,-1.2449848651885986
1715114160780681200,12.36168115234375,-4.352658748626709,-13.144166946411133,-3.533841609954834
1715114160790631200,12.371631103515625,-3.754108190536499,-13.4506254196167,-3.6296098232269287
1715114160800581000,12.3815810546875,-1.50355863571167,-13.177685737609863,-2.5330653190612793
1715114160810531000,12.391531005859376,0.4405331015586853,-13.043610572814941,-1.2401964664459229
1715114160820481000,12.40148095703125,1.968033790588379,-13.354857444763184,-1.292868971824646
1715114160830430700,12.4114306640625,3.7253777980804443,-14.221558570861816,-2.389413356781006
1715114160840380700,12.421380615234375,4.869806289672852,-15.64371395111084,-3.3423056602478027
1715114160850330600,12.43133056640625,5.688623428344727,-16.965312957763672,-3.624821424484253
1715114160860280600,12.441280517578125,6.129156112670898,-17.999608993530273,-3.6296098232269287
1715114160870230500,12.45123046875,6.354211330413818,-18.89504051208496,-4.141968727111816
1715114160880180200,12.46118017578125,6.995857238769531,-19.45528221130371,-5.114014625549316
1715114160890130200,12.471130126953126,8.078036308288574,-19.3786678314209,-7.383718013763428
1715114160900080000,12.481080078125,5.583278179168701,-17.822437286376953,-8.480262756347656
1715114160910030000,12.491030029296875,-7.747636795043945,-15.547945976257324,-5.521028995513916
1715114160919979800,12.500979736328125,-9.313444137573242,-13.977349281311035,-5.185841083526611
1715114160929929700,12.5109296875,-5.492298603057861,-11.91354751586914,-4.113238334655762
1715114160939879700,12.520879638671875,-1.5322890281677246,-9.773131370544434,-2.212242364883423
1715114160949829600,12.53082958984375,1.8100165128707886,-7.857769966125488,-0.43095630407333374
1715114160959779600,12.540779541015626,4.577713489532471,-6.210559368133545,0.8667010068893433
1715114160969729300,12.550729248046874,6.1530985832214355,-4.76924991607666,3.6727054119110107
1715114160979679200,12.56067919921875,4.553771495819092,-4.170699596405029,5.947196960449219
1715114160989629200,12.570629150390625,2.6144683361053467,-4.611232280731201,6.7708024978637695
1715114160999579100,12.5805791015625,1.2545616626739502,-5.540182590484619,7.0772600173950195
1715114161009528800,12.59052880859375,-0.6272808313369751,-6.325480937957764,6.732495307922363
1715114161019478800,12.600478759765625,-0.7613561153411865,-6.502651691436768,5.717353820800781
1715114161029428700,12.6104287109375,0.5171475410461426,-6.042964935302734,4.333505153656006
1715114161039378700,12.620378662109376,2.140416383743286,-5.1810526847839355,2.9017724990844727
1715114161049328600,12.63032861328125,4.027047157287598,-4.108449935913086,2.2697031497955322
1715114161059278300,12.6402783203125,5.166687488555908,-3.0837318897247314,1.0055646896362305
1715114161069228300,12.650228271484375,6.01423454284668,-2.049436569213867,-0.28730419278144836
1715114161079178200,12.66017822265625,6.426037311553955,-1.1013327836990356,-1.460463047027588
1715114161089128200,12.670128173828125,6.885724067687988,-0.8236053586006165,-2.9161376953125
1715114161099078000,12.680077880859375,6.694188117980957,-0.608127236366272,-3.428496837615967
1715114161109027800,12.69002783203125,5.784391403198242,-0.507570743560791,-3.5482068061828613
1715114161118977800,12.699977783203124,5.114014625549316,-0.45010992884635925,-3.754108190536499
1715114161128927700,12.709927734375,5.272032260894775,-0.5171475410461426,-3.399766445159912
1715114161138877700,12.719877685546875,5.827486991882324,-0.9097966551780701,-3.466804027557373
