time,seconds_elapsed,z,y,x
1715114148491182000,0.07218212890625,4.428076267242432,2.7772738933563232,0.3381809890270233
1715114148501266700,0.0822666015625,4.6722846031188965,3.4811692237854004,0.884058952331543
1715114148511394000,0.09239404296875,4.964377403259277,3.912125587463379,1.635838270187378
1715114148521555700,0.1025556640625,5.213374137878418,4.242525577545166,2.315791606903076
1715114148531741700,0.11274169921875,5.586869716644287,4.3622355461120605,2.497750997543335
1715114148541941800,0.122941650390625,6.027402877807617,4.165910720825195,2.253542423248291
1715114148552141800,0.133141845703125,6.257246017456055,4.01268196105957,1.8608932495117188
1715114148562176000,0.143176025390625,6.865373611450195,3.5482068061828613,1.1234791278839111
1715114148572126000,0.1531259765625,7.004237174987793,3.2178070545196533,0.9894038438796997
1715114148582076000,0.163075927734375,8.143877029418945,3.265691041946411,1.2192472219467163
1715114148592025600,0.173025634765625,9.896432876586914,3.1507694721221924,1.8082208633422852
1715114148601975600,0.1829755859375,10.231620788574219,3.2321722507476807,2.3349452018737793
1715114148611925500,0.192925537109375,10.087968826293945,3.3423056602478027,2.315791606903076
1715114148621875500,0.20287548828125,9.283516883850098,3.380612850189209,1.8896236419677734
1715114148631825400,0.212825439453125,9.283516883850098,3.4763808250427246,1.449090600013733
1715114148641775000,0.222775146484375,9.65222454071045,3.471592426300049,1.6262614727020264
1715114148651725000,0.23272509765625,10.609905242919922,3.064578056335449,1.18094003200531
1715114148661675000,0.242675048828125,10.667366027832031,3.002328872680664,1.3389573097229004
1715114148671625000,0.252625,10.78228759765625,4.20421838760376,2.0907366275787354
1715114148681574700,0.26257470703125,11.744756698608398,4.357447147369385,2.785055160522461
1715114148691524600,0.272524658203125,12.261903762817383,3.5673606395721436,2.7754783630371094
1715114148701474600,0.282474609375,11.974599838256836,2.676717519760132,1.9375077486038208
1715114148711424500,0.292424560546875,11.490970611572266,2.10210919380188,1.1569979190826416
1715114148721374500,0.30237451171875,12.515689849853516,1.53707754611969,1.1522095203399658
1715114148731324200,0.31232421875,13.0328369140625,1.403002142906189,1.3772644996643066
1715114148741274000,0.322274169921875,13.64096450805664,1.7717092037200928,1.7507599592208862
1715114148751224000,0.33222412109375,13.023260116577148,1.5275006294250488,2.229600429534912
1715114148761174000,0.342174072265625,11.553220748901367,1.3982137441635132,2.4402899742126465
1715114148771124000,0.3521240234375,9.795876502990723,1.2545616626739502,2.454655408859253
1715114148781073700,0.36207373046875,8.02416706085205,1.1204863786697388,2.0907366275787354
1715114148791023600,0.372023681640625,8.368931770324707,0.7086837291717529,1.128267526626587
1715114148800973600,0.3819736328125,10.313023567199707,-0.3208230137825012,0.639850378036499
1715114148810923500,0.391923583984375,12.735956192016602,-1.2306196689605713,0.7739257216453552
1715114148820873200,0.401873291015625,14.699201583862305,-2.164358377456665,0.32860419154167175
1715114148830823200,0.4118232421875,14.972140312194824,-2.8634653091430664,-0.11671733111143112
1715114148840773000,0.421773193359375,14.431050300598145,-2.5522189140319824,-0.10714052617549896
1715114148850723000,0.43172314453125,14.143746376037598,-2.097320795059204,0.2950853705406189
1715114148860673000,0.441673095703125,14.110227584838867,-1.8531121015548706,0.6542156338691711
1715114148870622700,0.451622802734375,14.474146842956543,-1.9345149993896484,0.41958385705947876
1715114148880572700,0.46157275390625,14.249091148376465,-2.011129379272461,0.46746787428855896
1715114148890522600,0.471522705078125,12.60188102722168,-1.944091796875,0.5440823435783386
1715114148900472600,0.48147265625,11.136629104614258,-1.436521053314209,0.414795458316803
1715114148910422300,0.49142236328125,11.05522632598877,-1.1971008777618408,0.4531026780605316
1715114148920372200,0.501372314453125,11.27070426940918,-1.216254472732544,0.49140989780426025
1715114148930322200,0.511322265625,11.218031883239746,-0.9528923034667969,0.41958385705947876
1715114148940272000,0.521272216796875,10.892420768737793,-0.6607996821403503,0.4818331003189087
1715114148950222000,0.53122216796875,9.963470458984375,-0.45010992884635925,0.4818331003189087
1715114148960171800,0.541171875,8.646659851074219,-0.40222588181495667,0.07960720360279083
1715114148970121700,0.551121826171875,7.190984725952148,-0.5027823448181152,-0.36092591285705566
1715114148980071700,0.56107177734375,5.965153694152832,-0.16759411990642548,-0.05925649031996727
1715114148990021600,0.571021728515625,5.8885393142700195,0.49799394607543945,1.2767080068588257
1715114148999971300,0.580971435546875,5.764040470123291,0.8379706144332886,2.6605565547943115
1715114149009921300,0.59092138671875,5.390544891357422,0.7038952708244324,2.8616695404052734
1715114149019871200,0.600871337890625,5.2564697265625,0.49799394607543945,2.741959571838379
1715114149029821200,0.6108212890625,6.003460884094238,0.23942017555236816,1.9518729448318481
1715114149039771100,0.620771240234375,6.386533260345459,0.3878606855869293,0.5871779918670654
1715114149049720800,0.630720947265625,6.233304023742676,0.5746083855628967,0.32381579279899597
1715114149059670800,0.6406708984375,5.716156482696533,0.6703764796257019,0.9271546006202698
1715114149069620700,0.650620849609375,5.462371349334717,0.8954314589500427,1.3341689109802246
1715114149079570700,0.66057080078125,5.87896203994751,1.2066776752471924,1.789067268371582
1715114149089520400,0.670520263671875,6.065710067749023,1.766920804977417,3.1729156970977783
1715114149099470300,0.68047021484375,6.76002836227417,2.2697031497955322,4.671686172485352
1715114149109420300,0.690420166015625,7.578845500946045,2.470816135406494,5.691616058349609
1715114149119370200,0.700370361328125,8.119935035705566,2.2170307636260986,5.533598899841309
1715114149129320200,0.7103203125,9.159018516540527,1.8626888990402222,3.2160115242004395
1715114149139270000,0.720269775390625,9.259574890136719,1.3455413579940796,1.7603367567062378
1715114149149219800,0.7302197265625,9.254786491394043,0.5937620401382446,1.6741455793380737
1715114149159169800,0.740169677734375,9.446322441101074,0.272938996553421,1.6645687818527222
1715114149169119700,0.75011962890625,9.408015251159668,0.13407529890537262,1.592742681503296
1715114149179069700,0.760069580078125,9.915586471557617,0.06224924325942993,1.9662381410598755
1715114149189019400,0.770019287109375,9.99220085144043,0.043095629662275314,2.8568811416625977
1715114149198969300,0.77996923828125,10.729615211486816,0.12928688526153564,3.78104305267334
1715114149208919300,0.789919189453125,10.992977142333984,0.7852981686592102,4.777030944824219
1715114149218869200,0.799869140625,11.385625839233398,1.3120225667953491,5.931035995483398
1715114149228819000,0.80981884765625,11.433509826660156,1.3072341680526733,6.625354766845703
1715114149238769000,0.819768798828125,10.676942825317383,1.2306196689605713,6.558317184448242
1715114149248718800,0.82971875,9.446322441101074,0.6416460275650024,6.208763599395752
1715114149258668800,0.839668701171875,9.32661247253418,0.07182604819536209,5.686827659606934
1715114149268618800,0.84961865234375,10.590751647949219,-0.014365210197865963,4.992508888244629
1715114149278568400,0.859568359375,12.616246223449707,-0.40701428055763245,4.216787815093994
1715114149288518400,0.869518310546875,14.043190002441406,-1.0295066833496094,3.177704095840454
1715114149298468400,0.87946826171875,14.134169578552246,-1.4221558570861816,2.162562608718872
1715114149308418300,0.889418212890625,13.18127727508545,-1.6136919260025024,1.449090600013733
1715114149318368000,0.899367919921875,12.123040199279785,-1.7046716213226318,1.5831658840179443
1715114149328318000,0.90931787109375,11.294646263122559,-1.5466543436050415,2.890399932861328
1715114149338268000,0.919267822265625,10.72482681274414,-0.6560112833976746,5.366004467010498
1715114149348217900,0.9292177734375,11.404779434204102,-0.07661445438861847,8.325238227844238
1715114149358167800,0.939167724609375,12.712014198303223,0.3256114423274994,9.761758804321289
1715114149368117500,0.949117431640625,12.520478248596191,0.8236053586006165,9.785700798034668
1715114149378067500,0.9590673828125,10.653000831604004,0.5793967843055725,9.201516151428223
1715114149388017400,0.969017333984375,9.206902503967285,-0.1388636976480484,8.10018253326416
1715114149397967400,0.97896728515625,8.890868186950684,-0.3926490843296051,6.855197906494141
1715114149407917300,0.988917236328125,8.584410667419434,-0.3064578175544739,6.1991868019104
1715114149417867300,0.9988671875,7.976283073425293,-0.19153612852096558,5.672462463378906
1715114149427817200,1.008817138671875,8.47906494140625,-0.07661445438861847,5.983708381652832
1715114149437767200,1.01876708984375,9.834183692932129,0.31124621629714966,7.0802531242370605
1715114149447717000,1.028717041015625,9.489418029785156,1.0965443849563599,7.645284652709961
1715114149457667000,1.0386669921875,8.110358238220215,1.436521053314209,7.999626636505127
1715114149467617000,1.048616943359375,7.315483093261719,1.7764976024627686,7.875127792358398
1715114149477567000,1.05856689453125,6.314706802368164,2.0925323963165283,7.463325023651123
1715114149487517000,1.068516845703125,6.783970355987549,2.7485435009002686,9.120112419128418
1715114149497467000,1.078466796875,5.419275760650635,0.727837324142456,5.705981254577637
1715114149507416800,1.088416748046875,3.2740707397460938,-0.2106897532939911,1.9614497423171997
1715114149517366800,1.09836669921875,-0.02513911761343479,0.8523358106613159,1.856104850769043
1715114149527316700,1.108316650390625,-4.574122428894043,0.4836287498474121,1.367687702178955
1715114149537266700,1.1182666015625,-4.267664432525635,-0.06224924325942993,1.4347254037857056
1715114149547216600,1.128216552734375,-0.6476315855979919,0.3256114423274994,2.5121161937713623
1715114149557166600,1.13816650390625,3.7864298820495605,0.5410895943641663,2.981379747390747
1715114149567116500,1.148116455078125,7.530961513519287,0.6847416758537292,2.7036523818969727
1715114149577066500,1.15806640625,6.774393558502197,1.0342950820922852,3.666121244430542
1715114149587016400,1.168016357421875,4.662707805633545,2.8778305053710938,5.931035995483398
1715114149596966400,1.17796630859375,3.183091163635254,2.8395233154296875,7.549516677856445
1715114149606916400,1.187916259765625,3.355473756790161,2.0446481704711914,8.258200645446777
1715114149616866300,1.1978662109375,4.370615005493164,1.9105730056762695,7.286154270172119
1715114149626816300,1.207816162109375,3.312378168106079,1.4891934394836426,5.796960830688477
1715114149636766200,1.21776611328125,4.9835309982299805,1.5514427423477173,6.156091213226318
1715114149646716200,1.227716064453125,7.7847466468811035,1.843535304069519,7.362768650054932
1715114149656666000,1.237666015625,8.862137794494629,1.2306196689605713,8.559869766235352
1715114149666616000,1.247615966796875,8.737639427185059,1.5610195398330688,7.243058681488037
1715114149676566000,1.25756591796875,5.0697221755981445,1.9536685943603516,5.705981254577637
1715114149686516000,1.267515869140625,3.5948939323425293,2.1595699787139893,7.434594631195068
1715114149696466000,1.2774658203125,5.7975592613220215,2.557007312774658,11.21743392944336
1715114149706415900,1.287415771484375,8.919598579406738,2.011129379272461,15.033790588378906
1715114149716365800,1.29736572265625,10.111910820007324,2.537853717803955,10.887033462524414
1715114149726315800,1.307315673828125,10.609905242919922,1.7477672100067139,3.709217071533203
1715114149736265700,1.317265625,11.208455085754395,1.2066776752471924,2.943072557449341
1715114149746215700,1.327215576171875,10.911574363708496,0.8954314589500427,7.156867504119873
1715114149756165400,1.337165283203125,8.38808536529541,2.403778553009033,9.053074836730957
1715114149766115300,1.347115234375,7.55011510848999,2.389413356781006,9.493608474731445
1715114149776065300,1.357065185546875,9.149441719055176,1.7764976024627686,8.579023361206055
1715114149786015200,1.36701513671875,11.81179428100586,1.1540051698684692,8.291719436645508
1715114149795965000,1.37696484375,15.297751426696777,0.33997663855552673,7.731475830078125
1715114149805915000,1.386914794921875,15.977705001831055,-0.20111294090747833,7.276577472686768
1715114149815864800,1.39686474609375,14.574703216552734,-0.33997663855552673,6.898293495178223
1715114149825814800,1.406814697265625,12.36724853515625,-0.2298433631658554,5.854421615600586
1715114149835764700,1.4167646484375,11.313799858093262,-0.6655880808830261,4.6285905838012695
1715114149845714400,1.42671435546875,11.285069465637207,-1.3455413579940796,3.9246952533721924
1715114149855664400,1.436664306640625,12.070367813110352,-1.158793568611145,2.895188331604004
1715114149865614300,1.4466142578125,7.2005615234375,-1.9105730056762695,1.6837223768234253
1715114149875564300,1.456564208984375,4.959589004516602,-1.3024457693099976,2.785055160522461
1715114149885514000,1.466513916015625,5.299565315246582,-1.0821791887283325,4.413112163543701
1715114149895464000,1.4764638671875,6.5732808113098145,-1.1492167711257935,5.806537628173828
1715114149905414000,1.486413818359375,8.02416706085205,-1.5418659448623657,5.72513484954834
1715114149915363800,1.49636376953125,8.35456657409668,-1.4652514457702637,5.337274074554443
1715114149925313800,1.506313720703125,7.918822288513184,-1.4317326545715332,5.222352504730225
1715114149935263500,1.516263427734375,7.813477039337158,-1.6424223184585571,4.336497783660889
1715114149945213400,1.52621337890625,10.159794807434082,-1.8914192914962769,4.0779242515563965
1715114149955163400,1.536163330078125,12.281057357788086,-2.2218191623687744,3.1250317096710205
1715114149965113300,1.54611328125,12.084733009338379,-2.6384103298187256,1.128267526626587
1715114149975063000,1.55606298828125,11.658565521240234,-3.026270866394043,0.314238965511322
1715114149985013000,1.566012939453125,10.96424674987793,-2.978386878967285,-0.1215057373046875
1715114149994963000,1.575962890625,8.886079788208008,-2.140416383743286,0.6494272351264954
1715114150004913000,1.585912841796875,5.8215012550354,-1.6759412288665771,1.2192472219467163
1715114150014862800,1.59586279296875,3.4320881366729736,-1.1444283723831177,1.6502034664154053
1715114150024812500,1.6058125,3.5182793140411377,-0.42616790533065796,2.339733600616455
1715114150034762500,1.615762451171875,5.242104530334473,-0.1388636976480484,2.80899715423584
1715114150044712400,1.62571240234375,6.654683589935303,0.272938996553421,3.62302565574646
1715114150054662400,1.635662353515625,6.309918403625488,-0.12928688526153564,2.8616695404052734
1715114150064612400,1.6456123046875,6.625953197479248,-0.2298433631658554,2.3924059867858887
1715114150074562000,1.65556201171875,7.617152690887451,-0.37828385829925537,2.5935189723968506
1715114150084512000,1.665511962890625,8.182184219360352,-0.5650315880775452,1.8082208633422852
1715114150094462000,1.6754619140625,8.292317390441895,-0.871489405632019,1.4203602075576782
1715114150104412000,1.685411865234375,6.716932773590088,-0.7709329724311829,1.0564415454864502
1715114150114361600,1.695361572265625,5.615600109100342,-0.45010992884635925,1.6214730739593506
1715114150124311600,1.7053115234375,6.860584735870361,-0.35913026332855225,2.4642322063446045
1715114150134261500,1.715261474609375,6.989871978759766,0.05746084079146385,3.2112231254577637
1715114150144211500,1.72521142578125,5.78798246383667,0.3256114423274994,3.4075474739074707
1715114150154161400,1.735161376953125,5.615600109100342,0.3734954595565796,4.049193859100342
1715114150164111000,1.745111083984375,6.180631637573242,0.9720458984375,5.629366874694824
1715114150174061000,1.75506103515625,5.227739334106445,1.1875240802764893,6.1991868019104
1715114150184011000,1.765010986328125,6.482301235198975,0.9002198576927185,6.007650852203369
1715114150193961000,1.7749609375,9.546878814697266,1.5131354331970215,6.644508361816406
1715114150203910700,1.78491064453125,9.498994827270508,1.8626888990402222,6.0651116371154785
1715114150213860600,1.794860595703125,8.756793022155762,1.8387469053268433,5.734711647033691
1715114150223810600,1.804810546875,10.533289909362793,1.0247182846069336,6.29016637802124
1715114150233760500,1.814760498046875,13.286622047424316,-1.3024457693099976,4.140173435211182
1715114150243710500,1.82471044921875,15.82447624206543,-2.537853717803955,4.168903827667236
1715114150253660200,1.83466015625,17.28493881225586,-2.0254945755004883,4.978143692016602
1715114150263610000,1.844610107421875,16.06389617919922,-0.17717093229293823,8.995614051818848
1715114150273560000,1.85456005859375,11.016919136047363,0.9959878921508789,9.258976936340332
1715114150283510000,1.864510009765625,8.732851028442383,0.35913026332855225,9.302072525024414
1715114150293459700,1.874459716796875,9.738415718078613,0.47405192255973816,9.996390342712402
1715114150303409700,1.88440966796875,10.030508041381836,0.5267243981361389,9.268553733825684
1715114150313359600,1.894359619140625,9.465476036071777,-0.7996633648872375,5.629366874694824
1715114150323309600,1.9043095703125,9.647436141967773,-3.442862033843994,0.07481880486011505
1715114150333259500,1.914259521484375,10.99776554107666,-5.118803024291992,-3.64577054977417
1715114150343209500,1.92420947265625,15.082273483276367,-4.189853191375732,0.5919663906097412
1715114150353159400,1.934159423828125,16.73906135559082,-3.773261785507202,7.176021099090576
1715114150363109400,1.944109375,14.340070724487305,-3.7684733867645264,8.986037254333496
1715114150373059300,1.954059326171875,10.811017990112305,-3.821146011352539,8.04272174835205
1715114150383009300,1.96400927734375,8.163030624389648,-4.304774761199951,6.079476833343506
1715114150392959200,1.973959228515625,6.956353187561035,-5.1331682205200195,4.149750232696533
1715114150402909200,1.9839091796875,7.8996686935424805,-5.315127849578857,2.205658197402954
1715114150412859100,1.993859130859375,7.846996307373047,-4.587290287017822,0.8026561141014099
1715114150422809000,2.00380908203125,7.612364292144775,-4.730942726135254,1.1953052282333374
1715114150432759000,2.013759033203125,7.665036678314209,-4.32871675491333,2.540846586227417
1715114150442709000,2.023708984375,7.9427642822265625,-3.2321722507476807,6.170456409454346
1715114150452659000,2.033658935546875,7.856573104858398,-2.715024709701538,9.967659950256348
1715114150462609000,2.04360888671875,6.266822814941406,-2.1547815799713135,15.522208213806152
1715114150472558800,2.053558837890625,5.78798246383667,-0.8236053586006165,19.712060928344727
1715114150482508800,2.0635087890625,6.4200520515441895,-0.37828385829925537,12.342708587646484
1715114150492458800,2.073458740234375,6.611588001251221,-2.1930887699127197,6.658873558044434
1715114150502408700,2.08340869140625,6.467936038970947,-3.691859006881714,2.234388828277588
1715114150512358700,2.093358642578125,5.285200119018555,-3.5865142345428467,0.5153518915176392
1715114150522308400,2.103308349609375,5.098452568054199,-2.6240451335906982,0.0077811554074287415
1715114150532258300,2.11325830078125,5.366602897644043,-3.0597896575927734,-1.548449993133545
1715114150542208300,2.123208251953125,5.835866451263428,-4.199429988861084,-3.933074951171875
1715114150552158200,2.133158203125,5.213374137878418,-4.280832767486572,-3.6553473472595215
1715114150562108200,2.143108154296875,4.945223808288574,-3.1890766620635986,-0.1885433793067932
1715114150572058000,2.15305810546875,4.643554210662842,-1.6519991159439087,4.269460201263428
1715114150582008000,2.163008056640625,3.47039532661438,-0.5219359993934631,7.635707855224609
1715114150591958000,2.1729580078125,2.6803088188171387,0.2825157940387726,9.416994094848633
1715114150601908000,2.182907958984375,1.382651448249817,0.17717093229293823,9.393052101135254
1715114150611858000,2.19285791015625,0.9469067454338074,-0.5506663918495178,7.755417823791504
1715114150621807900,2.202807861328125,2.4887726306915283,-0.8331822156906128,5.485714435577393
1715114150631757800,2.2127578125,2.646790027618408,-1.0055646896362305,5.4665608406066895
1715114150641707800,2.222707763671875,3.1016883850097656,-1.5131354331970215,5.806537628173828
1715114150651657700,2.23265771484375,3.3937809467315674,-2.140416383743286,5.045181751251221
1715114150661607700,2.242607666015625,3.293224334716797,-2.6144683361053467,3.5464112758636475
1715114150671557600,2.2525576171875,2.187103271484375,-3.270479440689087,2.521692991256714
1715114150681507600,2.262507568359375,1.5550340414047241,-4.146757125854492,2.143409013748169
1715114150691457500,2.27245751953125,0.7362170219421387,-4.558559894561768,4.839280128479004
1715114150701407500,2.282407470703125,0.27653029561042786,-5.228936672210693,5.021239280700684
1715114150711357400,2.292357421875,-1.5526398420333862,-6.076483726501465,4.671686172485352
1715114150721307400,2.302307373046875,-7.011419773101807,-6.967126846313477,7.214328289031982
1715114150731257300,2.31225732421875,-5.914875507354736,-6.938396453857422,9.124900817871094
1715114150741207300,2.322207275390625,-3.0322563648223877,-6.9240312576293945,21.24913787841797
1715114150751157200,2.3321572265625,-1.5526398420333862,-3.7205893993377686,30.19866371154785
1715114150761107200,2.342107177734375,-1.3515268564224243,-2.3080103397369385,28.331188201904297
1715114150771057200,2.35205712890625,-0.9828197956085205,-6.129156112670898,20.482994079589844
1715114150781007000,2.362007080078125,1.2677297592163086,-7.062894821166992,14.966753005981445
1715114150790957000,2.37195703125,4.830301761627197,-6.493074893951416,11.001955032348633
1715114150800907000,2.381906982421875,4.236539840698242,-7.790732383728027,9.67077922821045
1715114150810857000,2.39185693359375,0.20949265360832214,-10.63504409790039,7.472901821136475
1715114150820807000,2.401806884765625,-0.46088382601737976,-11.21444034576416,3.469796895980835
1715114150830756600,2.411756591796875,-0.7194576263427734,-10.5344877243042,0.67815762758255
1715114150840706600,2.42170654296875,2.0147206783294678,-5.736507415771484,1.71245276927948
1715114150850656500,2.431656494140625,6.443994045257568,-1.4460978507995605,5.514444828033447
1715114150860606500,2.4416064453125,8.862137794494629,-2.0877439975738525,5.519233703613281
1715114150870556400,2.451556396484375,4.863820552825928,-6.598419666290283,6.936600685119629
1715114150880506000,2.461506103515625,0.4297592043876648,-9.327810287475586,6.452971935272217
1715114150890456000,2.4714560546875,-1.294066071510315,-9.830592155456543,6.180033206939697
1715114150900406000,2.481406005859375,-0.7098808288574219,-9.648633003234863,6.711545944213867
1715114150910356000,2.49135595703125,-0.6763619780540466,-7.42681360244751,8.267777442932129
1715114150920305700,2.5013056640625,8.450334548950195,-3.4189200401306152,7.535151481628418
1715114150930255600,2.511255615234375,9.953893661499023,-6.54574728012085,7.334038257598877
1715114150940205600,2.52120556640625,9.135076522827148,-9.835380554199219,7.118560314178467
1715114150950155500,2.531155517578125,7.210138320922852,-11.889605522155762,5.524022102355957
1715114150960105500,2.54110546875,5.668272495269775,-10.553641319274902,5.456984043121338
1715114150970055200,2.55105517578125,1.7417817115783691,-8.992621421813965,4.058770656585693
1715114150980005000,2.561005126953125,-1.1216834783554077,-8.777143478393555,3.5416228771209717
1715114150989955000,2.570955078125,-1.1312602758407593,-8.56645393371582,4.714781761169434
1715114150999905000,2.580905029296875,-0.08259996026754379,-8.039729118347168,5.978919982910156
1715114151009854700,2.590854736328125,-0.21667525172233582,-7.273584842681885,5.662885665893555
1715114151019804700,2.6008046875,-1.1743559837341309,-6.133944988250732,4.53761100769043
1715114151029754600,2.610754638671875,-1.624465823173523,-2.6431987285614014,0.5776011347770691
1715114151039704600,2.62070458984375,-0.8343793153762817,-0.7709329724311829,0.3429693877696991
1715114151049654500,2.630654541015625,0.27653029561042786,-0.7182605266571045,0.49140989780426025
1715114151059604200,2.640604248046875,1.3778630495071411,-2.1930887699127197,-0.839766263961792
1715114151069554200,2.65055419921875,1.890222191810608,-3.7924153804779053,-2.094327926635742
1715114151079504100,2.660504150390625,2.340332269668579,-3.8115692138671875,-1.4287399053573608
1715114151089454000,2.6704541015625,2.4217350482940674,-3.7876269817352295,-0.839766263961792
1715114151099403800,2.68040380859375,2.144007682800293,-3.5673606395721436,-0.41359832882881165
1715114151109353700,2.690353759765625,2.1057004928588867,-3.2417490482330322,0.0077811554074287415
1715114151119303700,2.7003037109375,2.163161277770996,-2.8203697204589844,0.3381809890270233
1715114151129253600,2.710253662109375,1.7322049140930176,-2.4181437492370605,0.6685808300971985
1715114151139203600,2.72020361328125,1.4065934419631958,-2.7676970958709717,0.9750386476516724
1715114151149153300,2.7301533203125,1.4879963397979736,-3.050212860107422,0.7116764783859253
1715114151159103200,2.740103271484375,1.2054805755615234,-3.663128614425659,0.7260416746139526
1715114151169053200,2.75005322265625,-5.61799430847168,-4.807557106018066,4.025251388549805
1715114151179003100,2.760003173828125,-1.1552022695541382,-5.324704647064209,1.0660183429718018
1715114151188952800,2.769952880859375,0.30047231912612915,-6.086060523986816,-0.1933317929506302
1715114151198902800,2.77990283203125,-1.0833762884140015,-8.422801971435547,-0.8254010081291199
1715114151208852700,2.789852783203125,-2.8790276050567627,-32.9633674621582,-3.229179620742798
1715114151218802700,2.799802734375,0.34356793761253357,-53.725887298583984,-5.819705963134766
1715114151228752600,2.809752685546875,1.6364368200302124,-41.199424743652344,-0.016160860657691956
1715114151238702300,2.819702392578125,6.410475254058838,-25.45993995666504,6.486490726470947
1715114151248652300,2.82965234375,5.07451057434082,-19.235015869140625,11.801618576049805
1715114151258602200,2.839602294921875,0.152031809091568,-15.931017875671387,19.525314331054688
1715114151268552200,2.84955224609375,1.2485761642456055,-10.99896240234375,19.807828903198242
1715114151278502100,2.859502197265625,2.761711597442627,-10.15141487121582,5.9741315841674805
1715114151288452000,2.8694521484375,3.044227361679077,-12.253523826599121,-0.5859808921813965
1715114151298402000,2.879402099609375,1.4496891498565674,-12.866439819335938,-2.67372465133667
1715114151308352000,2.88935205078125,-7.753622055053711,-11.520898818969727,-4.335300922393799
1715114151318302000,2.899302001953125,-23.263259887695312,-12.301408767700195,-6.906673431396484
1715114151328252000,2.909251953125,-15.453374862670898,-11.070788383483887,-2.692878246307373
1715114151338201900,2.919201904296875,-4.1862616539001465,-11.042057991027832,2.0380642414093018
1715114151348151800,2.92915185546875,1.0570400953292847,-12.880805015563965,1.8273744583129883
1715114151358101800,2.939101806640625,3.4081461429595947,-15.251065254211426,-2.3098061084747314
1715114151368051700,2.9490517578125,3.1064767837524414,-17.266983032226562,-7.198765754699707
1715114151378001700,2.959001708984375,2.584540843963623,-17.990032196044922,-8.716690063476562
1715114151387951600,2.96895166015625,2.761711597442627,-16.989255905151367,-5.0248308181762695
1715114151397901600,2.978901611328125,3.5470097064971924,-16.318878173828125,-2.5109190940856934
1715114151407851500,2.9888515625,3.7624878883361816,-16.730682373046875,-2.3768436908721924
1715114151417801200,2.99880126953125,3.139995574951172,-17.8128604888916,-3.162141799926758
1715114151427751200,3.008751220703125,1.84233820438385,-19.158401489257812,-4.40233850479126
1715114151437701000,3.018701171875,0.6643909811973572,-19.86708641052246,-6.221931457519531
1715114151447651000,3.028651123046875,0.851138710975647,-19.426551818847656,-6.834847450256348
1715114151457601000,3.03860107421875,-0.690727174282074,-17.07065773010254,-5.302558422088623
1715114151467551000,3.048551025390625,-1.5765818357467651,-13.939042091369629,-3.004124641418457
1715114151477501000,3.0585009765625,-0.46567222476005554,-11.39161205291748,-1.955464243888855
1715114151487451000,3.068450927734375,1.1623848676681519,-8.858546257019043,-1.1366472244262695
1715114151497400800,3.07840087890625,3.3219549655914307,-7.613561630249023,-0.6147112846374512
1715114151507350800,3.088350830078125,4.806359767913818,-6.009446144104004,1.3389573097229004
1715114151517300700,3.09830078125,5.543774127960205,-4.697423934936523,3.90554141998291
1715114151527250700,3.108250732421875,4.571728229522705,-4.113238334655762,5.619790077209473
1715114151537200600,3.11820068359375,2.3116016387939453,-4.07014274597168,6.4817023277282715
1715114151547150600,3.128150634765625,0.20949265360832214,-4.10366153717041,6.457760334014893
1715114151557100500,3.1381005859375,-0.17836803197860718,-4.1180267333984375,5.112219333648682
1715114151567050500,3.148050537109375,-0.3172317147254944,-3.864241600036621,3.9917328357696533
1715114151577000400,3.15800048828125,-0.25019407272338867,-3.361459255218506,3.2974143028259277
1715114151586950400,3.167950439453125,0.20949265360832214,-2.7724854946136475,2.823362350463867
1715114151596900400,3.177900390625,0.8271966576576233,-2.2601263523101807,1.6645687818527222
1715114151606850300,3.187850341796875,1.2533645629882812,-1.2880805730819702,0.6206967830657959
1715114151616800300,3.19780029296875,2.163161277770996,-0.2106897532939911,-0.13587094843387604
1715114151626750200,3.207750244140625,3.116053581237793,0.6607996821403503,0.08918401598930359
1715114151636700200,3.2177001953125,3.973177671432495,1.37906014919281,0.6542156338691711
1715114151646650000,3.227650146484375,5.586869716644287,1.5849615335464478,0.6206967830657959
1715114151656600000,3.23760009765625,6.602011203765869,1.0199298858642578,-0.5524620413780212
1715114151666550000,3.247550048828125,5.869385242462158,-0.20111294090747833,-3.2196028232574463
1715114151676500000,3.2575,4.6914381980896,-1.8770540952682495,-5.412691593170166
1715114151686450000,3.267449951171875,2.12485408782959,-4.127603530883789,-6.667253017425537
1715114151696400000,3.27739990234375,-7.241262912750244,-7.364564418792725,-7.007229804992676
1715114151706349800,3.287349853515625,-25.11637306213379,-13.608642578125,-5.541978359222412
1715114151716299800,3.2972998046875,-35.88070297241211,-25.862167358398438,0.14185644686222076
1715114151726249700,3.307249755859375,-24.292768478393555,-33.092655181884766,1.1234791278839111
1715114151736199700,3.31719970703125,-12.982558250427246,-27.624300003051758,0.6542156338691711
1715114151746149600,3.327149658203125,-7.873332500457764,-17.654844284057617,0.9080010056495667
1715114151756099600,3.337099609375,-6.767210960388184,-9.773131370544434,0.39564183354377747
1715114151766049500,3.347049560546875,-7.2987236976623535,-5.430049419403076,-2.367266893386841
1715114151775999500,3.35699951171875,-7.016208171844482,-3.7205893993377686,-5.273828029632568
1715114151785949400,3.366949462890625,-5.886145114898682,-4.438849925994873,-7.371148586273193
1715114151795899400,3.3768994140625,-4.598064422607422,-7.479485988616943,-8.40544319152832
1715114151805849300,3.386849365234375,-4.396951198577881,-12.215216636657715,-10.186729431152344
1715114151815799300,3.39679931640625,-3.9468414783477783,-16.28536033630371,-11.086949348449707
1715114151825749200,3.406749267578125,-1.4616601467132568,-15.82567310333252,-7.055113792419434
1715114151835699200,3.41669921875,0.9469067454338074,-11.760318756103516,-0.25079262256622314
1715114151845649000,3.42664892578125,1.1097124814987183,-9.581595420837402,1.8082208633422852
1715114151855598800,3.436598876953125,2.412158250808716,-9.097966194152832,0.07960720360279083
1715114151865548800,3.446548828125,3.537432909011841,-8.877699851989746,-3.5260605812072754
1715114151875498800,3.456498779296875,1.6316484212875366,-8.111555099487305,-6.777386665344238
1715114151885448700,3.46644873046875,-0.6811503767967224,-7.398083209991455,-8.664017677307129
1715114151895398400,3.4763984375,-1.677138328552246,-7.666234016418457,-9.86111831665039
1715114151905348400,3.486348388671875,2.450465440750122,-8.480262756347656,-9.157222747802734
1715114151915298300,3.49629833984375,6.381744861602783,-8.959102630615234,-6.585850238800049
1715114151925248300,3.506248291015625,7.258022308349609,-9.030928611755371,-4.076726913452148
1715114151935198000,3.516197998046875,7.071274757385254,-8.96389102935791,-2.1709423065185547
1715114151945148000,3.52614794921875,6.242880821228027,-9.069235801696777,-1.0552444458007812
1715114151955097900,3.536097900390625,5.012261390686035,-9.509769439697266,-0.6147112846374512
1715114151965047800,3.5460478515625,3.09689998626709,-10.093954086303711,-0.011372458189725876
1715114151974997800,3.555997802734375,1.4113819599151611,-11.185709953308105,0.3381809890270233
1715114151984947500,3.565947509765625,0.22864626348018646,-13.096282958984375,0.7882909178733826
1715114151994897400,3.5758974609375,0.48722004890441895,-14.460978507995605,2.93349552154541
1715114152004847400,3.585847412109375,2.4648306369781494,-14.939818382263184,5.773018836975098
1715114152014797300,3.59579736328125,2.8814218044281006,-15.002067565917969,8.45931339263916
1715114152024747000,3.6057470703125,-2.0410568714141846,-14.101847648620605,10.499173164367676
1715114152034697000,3.615697021484375,-3.5254619121551514,-12.861651420593262,7.161655902862549
1715114152044647000,3.62564697265625,-2.3235726356506348,-11.88002872467041,5.945401191711426
1715114152054596900,3.635596923828125,-1.4281413555145264,-10.472238540649414,5.964554786682129
1715114152064546800,3.645546875,-2.103306293487549,-8.959102630615234,5.107430934906006
1715114152074496500,3.65549658203125,-4.162319660186768,-7.8529815673828125,3.575141668319702
1715114152084446500,3.665446533203125,-5.905298709869385,-7.158663272857666,1.4155718088150024
1715114152094396400,3.675396484375,-5.5126495361328125,-6.675034523010254,-0.3992331326007843
1715114152104346400,3.685346435546875,-3.113659381866455,-6.57926607131958,-2.1134815216064453
1715114152114296000,3.695296142578125,-0.4944026470184326,-6.828263282775879,-3.8564603328704834
1715114152124246000,3.70524609375,0.9804255962371826,-6.856993675231934,-3.9665937423706055
1715114152134196000,3.715196044921875,1.2102689743041992,-6.789956092834473,-3.55479097366333
1715114152144146000,3.72514599609375,0.8080430626869202,-6.593631267547607,-3.176506996154785
1715114152154095900,3.735095947265625,0.5590460896492004,-6.196194171905518,-1.9410990476608276
1715114152164045600,3.745045654296875,0.8032546639442444,-6.349422931671143,-2.4678235054016113
1715114152173995500,3.75499560546875,1.3634978532791138,-6.756437301635742,-4.6513352394104
1715114152183945500,3.764945556640625,-0.1496376097202301,-7.560888767242432,-5.972934722900391
1715114152193895400,3.7748955078125,-6.858190536499023,-8.413225173950195,-7.088632583618164
1715114152203845000,3.78484521484375,-9.683348655700684,-9.404424667358398,-5.743091106414795
1715114152213795000,3.794795166015625,-6.1303534507751465,-10.103530883789062,-2.668936252593994
1715114152223745000,3.8047451171875,-1.9788076877593994,-11.161767959594727,-0.6051344871520996
1715114152233695000,3.814695068359375,0.11372458189725876,-12.555193901062012,0.6973112225532532
1715114152243645000,3.82464501953125,0.3770867586135864,-13.771448135375977,2.4642322063446045
1715114152253594600,3.8345947265625,-0.4321534037590027,-14.695610046386719,4.590283393859863
1715114152263544600,3.844544677734375,-1.9788076877593994,-14.724340438842773,6.678027153015137
1715114152273494500,3.85449462890625,-3.0801405906677246,-14.09705924987793,7.314884662628174
1715114152283444500,3.864444580078125,-2.740163803100586,-13.603854179382324,7.0802531242370605
1715114152293394400,3.87439453125,-1.6627731323242188,-13.431471824645996,6.740276336669922
1715114152303344400,3.884344482421875,-1.3658920526504517,-13.493721008300781,6.2614359855651855
1715114152313294300,3.89429443359375,-2.1080946922302246,-13.594277381896973,5.988496780395508
1715114152323244300,3.904244384765625,-2.582146644592285,-13.69962215423584,6.223128795623779
1715114152333194200,3.9141943359375,-1.88782799243927,-13.886369705200195,5.658097267150879
1715114152343144200,3.924144287109375,-0.8056488633155823,-13.785813331604004,4.590283393859863
1715114152353094100,3.93409423828125,-0.4513070285320282,-13.64216136932373,3.053205728530884
1715114152363044000,3.944044189453125,-1.3994108438491821,-14.020444869995117,0.960673451423645
1715114152372994000,3.953994140625,-3.357867956161499,-14.446613311767578,-1.083974838256836
1715114152382944000,3.963944091796875,-4.100070476531982,-14.537592887878418,-2.7934348583221436
1715114152392894000,3.97389404296875,-2.45285964012146,-14.590265274047852,-3.755903959274292
1715114152402844000,3.983843994140625,0.48722004890441895,-14.571111679077148,-4.186860084533691
1715114152412793900,3.9937939453125,3.025073766708374,-14.470555305480957,-3.8804023265838623
1715114152422743800,4.003743896484375,4.3610382080078125,-14.824896812438965,-3.4350810050964355
1715114152432693800,4.01369384765625,4.72495698928833,-15.796942710876465,-2.7886464595794678
1715114152442643700,4.023643798828125,4.997896194458008,-17.32923126220703,-2.1326351165771484
1715114152452593700,4.03359375,6.865373611450195,-18.880674362182617,-4.000112533569336
1715114152462543600,4.043543701171875,8.914810180664062,-19.953277587890625,-6.949769020080566
1715114152472493600,4.05349365234375,9.575610160827637,-19.536685943603516,-8.98005199432373
1715114152482443500,4.063443603515625,6.774393558502197,-17.367538452148438,-8.496423721313477
1715114152492393500,4.0733935546875,-6.2165446281433105,-15.169661521911621,-4.751891613006592
1715114152502343400,4.083343505859375,-9.678560256958008,-13.843274116516113,-4.057573318481445
1715114152512293400,4.09329345703125,-6.077681064605713,-12.282255172729492,-3.708019971847534
1715114152522243300,4.103243408203125,-2.2804770469665527,-10.299856185913086,-2.1757307052612305
1715114152532193300,4.113193359375,0.93254154920578,-8.145073890686035,-0.3274070918560028
1715114152542143200,4.123143310546875,4.4041337966918945,-6.282385349273682,0.9750386476516724
1715114152552093200,4.13309326171875,5.965153694152832,-5.324704647064209,2.4450783729553223
1715114152562043000,4.14304296875,5.088875770568848,-4.879383087158203,4.729146957397461
1715114152571992800,4.152992919921875,3.494337320327759,-4.745307922363281,6.596624374389648
1715114152581942800,4.16294287109375,1.2677297592163086,-5.0469770431518555,8.444948196411133
1715114152591892700,4.172892822265625,-1.0881646871566772,-5.626373767852783,8.387487411499023
1715114152601842700,4.1828427734375,-0.9157821536064148,-5.731719017028809,6.203975200653076
1715114152611792600,4.192792724609375,-0.13048399984836578,-5.382165431976318,4.068347454071045
1715114152621742600,4.20274267578125,1.4832079410552979,-4.41969633102417,2.9047651290893555
1715114152631692500,4.212692626953125,3.250128746032715,-3.064578056335449,1.9901801347732544
1715114152641642500,4.222642578125,4.662707805633545,-1.9393033981323242,0.9846154451370239
1715114152651592400,4.232592529296875,5.385756492614746,-1.0582371950149536,0.3621230125427246
1715114152661542400,4.24254248046875,5.716156482696533,-0.5267243981361389,-0.15981295704841614
1715114152671492400,4.252492431640625,5.720944881439209,-0.28730419278144836,-1.1701661348342896
1715114152681442300,4.2624423828125,5.299565315246582,-0.17238251864910126,-2.185307502746582
1715114152691392300,4.272392333984375,5.045780181884766,-0.26336219906806946,-3.310582399368286
1715114152701342200,4.28234228515625,6.233304023742676,-0.028730420395731926,-3.2339680194854736
1715114152711292200,4.292292236328125,6.9276227951049805,0.009576806798577309,-2.4199392795562744
1715114152721242000,4.3022421875,6.1519012451171875,-0.8331822156906128,-3.2339680194854736
1715114152731192000,4.312192138671875,4.710591793060303,-2.7054479122161865,-4.766256809234619
1715114152741142000,4.32214208984375,-2.826355218887329,-5.659893035888672,-6.628945827484131
1715114152751092000,4.332092041015625,-26.62950897216797,-12.143390655517578,-9.990405082702637
1715114152761042000,4.3420419921875,-43.8342399597168,-24.933216094970703,-7.8978729248046875
1715114152770991900,4.351991943359375,-28.185739517211914,-29.946674346923828,-4.378396511077881
1715114152780941800,4.36194189453125,-11.00015926361084,-24.30593490600586,1.14742112159729
1715114152790891800,4.371891845703125,-8.462306022644043,-18.310853958129883,1.1761516332626343
1715114152800841700,4.381841796875,-7.902062892913818,-11.568782806396484,0.050876785069704056
1715114152810791700,4.391791748046875,-8.620323181152344,-6.794744491577148,-2.3481132984161377
1715114152820741600,4.40174169921875,-9.07522201538086,-5.640739440917969,-5.929839134216309
1715114152830691600,4.411691650390625,-9.32421875,-8.628703117370605,-10.756549835205078
1715114152840641500,4.4216416015625,-7.4567413330078125,-13.4506254196167,-12.92569637298584
1715114152850591500,4.431591552734375,-4.564545631408691,-18.195932388305664,-13.854646682739258
1715114152860541400,4.44154150390625,1.1001356840133667,-19.27332305908203,-11.599308967590332
1715114152870491400,4.451491455078125,3.312378168106079,-15.863980293273926,-4.818929672241211
1715114152880441300,4.46144140625,4.351461410522461,-10.156203269958496,-0.2364274114370346
1715114152890391300,4.471391357421875,5.926846504211426,-5.679046630859375,-0.7727286219596863
1715114152900341200,4.48134130859375,5.457582950592041,-3.423708438873291,-1.7591396570205688
1715114152910291200,4.491291259765625,4.681861400604248,-4.438849925994873,-4.301782131195068
1715114152920241200,4.5012412109375,6.956353187561035,-7.469909191131592,-6.365583896636963
1715114152930191000,4.511191162109375,10.289081573486328,-9.921571731567383,-5.920262336730957
1715114152940140800,4.521140869140625,11.098321914672852,-10.984597206115723,-4.071938514709473
1715114152950090800,4.5310908203125,10.135852813720703,-11.190498352050781,-2.7742812633514404
1715114152960040700,4.541040771484375,7.794323444366455,-10.826580047607422,-1.912368655204773
1715114152969990700,4.55099072265625,4.859032154083252,-10.596736907958984,-1.4957774877548218
1715114152979940400,4.5609404296875,1.9716250896453857,-10.520122528076172,-0.9642647504806519
1715114152989890300,4.570890380859375,-0.7433996200561523,-10.812214851379395,0.32860419154167175
1715114152999840300,4.58084033203125,-2.759317398071289,-12.33013916015625,0.8457517623901367
1715114153009790200,4.590790283203125,-2.653972625732422,-14.106636047363281,1.5400702953338623
1715114153019740200,4.600740234375,0.669179379940033,-14.350845336914062,4.159327030181885
1715114153029689900,4.61068994140625,3.7481226921081543,-14.092270851135254,7.994838237762451
1715114153039639800,4.620639892578125,4.696226596832275,-13.627796173095703,10.910975456237793
1715114153049589800,4.63058984375,1.0857704877853394,-12.138602256774902,10.202292442321777
1715114153059539700,4.640539794921875,-0.04908113554120064,-10.912771224975586,7.506421089172363
1715114153069489400,4.650489501953125,-0.02992752194404602,-10.271124839782715,7.276577472686768
1715114153079439400,4.660439453125,-2.1942858695983887,-9.648633003234863,6.357203960418701
1715114153089389300,4.670389404296875,-4.933252811431885,-8.604761123657227,4.834491729736328
1715114153099339300,4.68033935546875,-7.394492149353027,-7.694964408874512,2.9287071228027344
1715114153109289200,4.690289306640625,-7.542932510375977,-7.144298076629639,0.40043023228645325
1715114153119239000,4.700239013671875,-4.875791549682617,-6.722918510437012,-2.779069662094116
1715114153129188900,4.71018896484375,-2.2613234519958496,-6.995857238769531,-4.636970043182373
1715114153139138800,4.720138916015625,-0.34596213698387146,-7.675810813903809,-5.010465621948242
1715114153149088800,4.7300888671875,0.7026981711387634,-8.111555099487305,-4.292205333709717
1715114153159038500,4.74003857421875,1.5837644338607788,-8.073247909545898,-4.2730512619018555
1715114153168988400,4.749988525390625,1.4305355548858643,-7.46033239364624,-3.640982151031494
1715114153178938400,4.7599384765625,0.42018240690231323,-6.722918510437012,-1.4000093936920166
1715114153188888300,4.769888427734375,0.7457938194274902,-6.909666061401367,-2.692878246307373
1715114153198838300,4.77983837890625,0.25258827209472656,-7.785943984985352,-5.355230808258057
1715114153208788000,4.7897880859375,-7.116764545440674,-8.834604263305664,-8.18996524810791
1715114153218738000,4.799738037109375,-11.028889656066895,-9.615114212036133,-7.888296127319336
1715114153228688000,4.80968798828125,-6.848613739013672,-9.758766174316406,-4.541202068328857
1715114153238637800,4.819637939453125,-1.8064252138137817,-10.395624160766602,-2.036867141723633
1715114153248587500,4.82958740234375,0.7457938194274902,-11.544840812683105,-0.20769700407981873
1715114153258537500,4.839537353515625,0.8319851160049438,-12.650961875915527,1.8608932495117188
1715114153268487400,4.8494873046875,-0.2645592987537384,-13.316550254821777,3.575141668319702
1715114153278437400,4.859437255859375,-1.1456254720687866,-12.981361389160156,5.054758548736572
1715114153288387300,4.86938720703125,-1.677138328552246,-12.631808280944824,6.443395137786865
1715114153298337300,4.879337158203125,-1.4856021404266357,-12.674903869628906,6.903081893920898
1715114153308287200,4.889287353515625,-0.5758054852485657,-12.617443084716797,7.166444301605225
1715114153318237200,4.8992373046875,0.03232172131538391,-12.722787857055664,7.166444301605225
1715114153328187100,4.909187255859375,-0.5566518902778625,-13.057975769042969,6.615777969360352
1715114153338137000,4.91913720703125,-1.5191209316253662,-13.445837020874023,6.045958042144775
1715114153348087000,4.929087158203125,-2.146401882171631,-13.747506141662598,5.150526523590088
1715114153358036700,4.93903662109375,-2.61087703704834,-13.895946502685547,3.536834478378296
1715114153367986700,4.948986572265625,-4.4975080490112305,-13.51766300201416,3.5703532695770264
1715114153377936600,4.9589365234375,-6.072892665863037,-13.42668342590332,1.71245276927948
1715114153387886600,4.968886474609375,-5.771223068237305,-13.306973457336426,-0.5333084464073181
1715114153397836500,4.97883642578125,-3.645172119140625,-13.30218505859375,-1.1079168319702148
1715114153407786500,4.988786376953125,-1.0115501880645752,-13.33570384979248,-0.10235211998224258
1715114153417736400,4.998736328125,-0.16400282084941864,-13.4506254196167,0.7978677153587341
1715114153427686400,5.008686279296875,0.5351040959358215,-13.685256958007812,0.02693476900458336
1715114153437636400,5.01863623046875,2.12485408782959,-13.924676895141602,-1.2994530200958252
1715114153447586300,5.02858642578125,3.7624878883361816,-14.561534881591797,-2.7503392696380615
1715114153457536300,5.038536376953125,5.031414985656738,-15.653290748596191,-3.6745009422302246
1715114153467486200,5.048486328125,5.3761796951293945,-16.81687355041504,-3.6745009422302246
1715114153477436200,5.058436279296875,5.371391296386719,-17.86553382873535,-3.55479097366333
1715114153487386000,5.06838623046875,5.457582950592041,-18.488025665283203,-3.8708255290985107
1715114153497336000,5.078336181640625,5.064933776855469,-18.545486450195312,-4.220378875732422
1715114153507286000,5.0882861328125,0.5494692921638489,-18.59337043762207,-5.197213172912598
1715114153517236000,5.098236083984375,-5.503072738647461,-18.27733612060547,-6.767809867858887
1715114153527186000,5.10818603515625,-6.432023048400879,-16.620548248291016,-6.691195011138916
1715114153537135900,5.118135986328125,-3.79840087890625,-13.742717742919922,-5.211578369140625
1715114153547085800,5.1280859375,-0.7817068696022034,-10.903194427490234,-3.9139211177825928
1715114153557035800,5.138035888671875,1.2294225692749023,-8.394071578979492,-3.492541790008545
1715114153566985700,5.14798583984375,2.7952303886413574,-6.258443355560303,-1.7591396570205688
1715114153576935700,5.157935791015625,3.75291109085083,-5.161899089813232,-1.0217255353927612
1715114153586885600,5.1678857421875,4.303577423095703,-4.122815132141113,1.0899603366851807
1715114153596835600,5.177835693359375,3.9396588802337646,-3.227383852005005,4.556764602661133
1715114153606785500,5.18778564453125,2.3020248413085938,-3.4763808250427246,6.610989570617676
1715114153616735500,5.197735595703125,0.4537012279033661,-4.611232280731201,8.172008514404297
1715114153626685400,5.207685546875,-1.4089876413345337,-5.9088897705078125,7.817667007446289
1715114153636635400,5.217635498046875,-0.8008604645729065,-6.033388137817383,5.303755283355713
1715114153646585300,5.22758544921875,0.6212953329086304,-5.564124584197998,3.0388405323028564
1715114153656535300,5.237535400390625,2.0913352966308594,-4.716577529907227,2.7036523818969727
1715114153666485200,5.2474853515625,2.9484593868255615,-3.8498764038085938,2.9047651290893555
1715114153676435200,5.257435302734375,3.8391025066375732,-2.9879636764526367,2.081159830093384
1715114153686385200,5.26738525390625,4.514267444610596,-2.3080103397369385,1.2623428106307983
1715114153696335000,5.277335205078125,4.667496204376221,-1.8100165128707886,0.3621230125427246
1715114153706285000,5.28728515625,4.997896194458008,-1.4891934394836426,-0.7104793787002563
1715114153716235000,5.297235107421875,5.275623321533203,-1.2641384601593018,-1.1941081285476685
1715114153726185000,5.30718505859375,5.357026100158691,-0.9816226959228516,-0.9163807034492493
1715114153736135000,5.317135009765625,6.515820026397705,-1.0678139925003052,-0.43754035234451294
1715114153746084900,5.3270849609375,7.128735542297363,-1.5753847360610962,-0.7583633661270142
1715114153756034800,5.337034912109375,5.299565315246582,-2.738966703414917,-2.7551276683807373
1715114153765984800,5.34698486328125,2.7042508125305176,-4.357447147369385,-4.775833606719971
1715114153775934700,5.356934814453125,-7.949946880340576,-6.799532890319824,-6.24587345123291
1715114153785884700,5.366884765625,-27.55367088317871,-12.646173477172852,-8.611345291137695
1715114153795834600,5.376834716796875,-38.43770980834961,-24.18622589111328,-13.801974296569824
1715114153805784600,5.38678466796875,-25.61436653137207,-25.862167358398438,-8.333617210388184
1715114153815734500,5.396734619140625,-10.679336547851562,-20.95405387878418,-1.304241418838501
1715114153825684500,5.4066845703125,-9.089587211608887,-17.1376953125,-0.4040215313434601
1715114153835634400,5.416634521484375,-10.1382474899292,-11.314997673034668,-1.1510124206542969
1715114153845584400,5.42658447265625,-9.376891136169434,-6.186617374420166,-3.27227520942688
1715114153855534300,5.436534423828125,-8.285135269165039,-4.098873138427734,-5.929839134216309
1715114153865484300,5.446484375,-7.978677272796631,-6.01423454284668,-9.813234329223633
1715114153875434200,5.456434326171875,-5.704185485839844,-10.620678901672363,-12.159551620483398
1715114153885384200,5.46638427734375,-1.456871747970581,-15.725116729736328,-13.65832233428955
1715114153895334100,5.476334228515625,4.557363033294678,-18.488025665283203,-12.647969245910645
1715114153905284000,5.4862841796875,4.997896194458008,-16.8408145904541,-7.313687801361084
1715114153915234000,5.496234130859375,0.4537012279033661,-13.148955345153809,0.21847090125083923
1715114153925184000,5.50618408203125,1.9476830959320068,-10.079588890075684,2.4450783729553223
1715114153935134000,5.516134033203125,4.854243755340576,-7.556100368499756,0.7882909178733826
1715114153945084000,5.526083984375,4.2509050369262695,-6.3973069190979,-1.0456676483154297
1715114153955033900,5.536033935546875,2.12485408782959,-7.350199222564697,-3.7942111492156982
1715114153964983800,5.54598388671875,2.5941176414489746,-9.53849983215332,-6.413467884063721
1715114153974933800,5.555933837890625,6.257246017456055,-11.310209274291992,-6.935403823852539
1715114153984883500,5.565883544921875,8.608352661132812,-11.961431503295898,-5.043984413146973
1715114153994833400,5.57583349609375,8.593987464904785,-11.453861236572266,-2.381632089614868
1715114154004783400,5.585783447265625,6.9276227951049805,-10.60152530670166,-1.7447744607925415
1715114154014733300,5.5957333984375,4.686649799346924,-9.773131370544434,-2.0033483505249023
1715114154024683300,5.605683349609375,2.6898856163024902,-8.848969459533691,-1.4718354940414429
1715114154034633200,5.61563330078125,0.8750807046890259,-8.432378768920898,-0.6003460884094238
1715114154044583200,5.625583251953125,-0.2885012924671173,-8.968679428100586,-0.2651578485965729
1715114154054533000,5.635533203125,-1.236605167388916,-10.615890502929688,-0.41359832882881165
1715114154064483000,5.645483154296875,-1.4425065517425537,-12.57913589477539,0.7308300733566284
1715114154074433000,5.65543310546875,1.6412252187728882,-13.187262535095215,4.681262969970703
1715114154084383000,5.665383056640625,5.500678539276123,-13.498509407043457,9.718663215637207
1715114154094333000,5.6753330078125,6.171054840087891,-13.646949768066406,11.849502563476562
1715114154104283000,5.685282958984375,-0.7338228225708008,-12.200851440429688,8.3922758102417
1715114154114232800,5.69523291015625,-2.1320366859436035,-10.285490036010742,5.72513484954834
1715114154124182800,5.705182861328125,-0.5614402890205383,-9.346963882446289,6.448183536529541
1715114154134132700,5.7151328125,-1.437718152999878,-8.604761123657227,5.480926036834717
1715114154144082700,5.725082763671875,-3.5877113342285156,-8.279149055480957,3.843292236328125
1715114154154032600,5.73503271484375,-5.5126495361328125,-7.90086555480957,2.828150749206543
1715114154163982600,5.744982666015625,-5.627571105957031,-7.465120792388916,1.2096704244613647
1715114154173932500,5.7549326171875,-3.6116533279418945,-7.450755596160889,-1.668160080909729
1715114154183882500,5.764882568359375,-2.0697872638702393,-7.929595947265625,-4.17728328704834
1715114154193832400,5.77483251953125,-0.7912836670875549,-8.044517517089844,-4.852448463439941
1715114154203782400,5.784782470703125,0.02753331884741783,-7.647080421447754,-4.6704888343811035
1715114154213732400,5.794732421875,0.34356793761253357,-7.048529624938965,-4.134187698364258
1715114154223682300,5.804682373046875,-0.8870517015457153,-6.718130111694336,-2.67372465133667
1715114154233632300,5.81463232421875,-3.7888240814208984,-6.914454460144043,-4.31135892868042
1715114154243582200,5.824582275390625,-7.734468460083008,-8.010998725891113,-8.558672904968262
1715114154253532200,5.8345322265625,-7.164648532867432,-8.925583839416504,-8.76457405090332
1715114154263482000,5.844482177734375,-2.7018566131591797,-9.160215377807617,-5.661688327789307
1715114154273432000,5.85443212890625,0.4297592043876648,-9.490615844726562,-2.2619221210479736
1715114154283382000,5.864382080078125,1.334767460823059,-10.472238540649414,0.07960720360279083
1715114154293332000,5.87433203125,0.4297592043876648,-11.841721534729004,1.5783774852752686
1715114154303282000,5.884281982421875,-1.136048674583435,-13.144166946411133,2.4881742000579834
1715114154313232000,5.89423193359375,-2.299630641937256,-14.068328857421875,3.4362781047821045
1715114154323181800,5.904181884765625,-2.740163803100586,-14.374787330627441,4.901529312133789
1715114154333131800,5.9141318359375,-2.515108823776245,-14.18803882598877,6.323685169219971
1715114154343081700,5.924081787109375,-1.8112136125564575,-13.91510009765625,7.415441036224365
1715114154353031700,5.93403173828125,-0.973242998123169,-13.843274116516113,8.06666374206543
1715114154362981600,5.943981689453125,-0.6572083830833435,-13.905523300170898,8.689156532287598
1715114154372931600,5.953931640625,-1.0833762884140015,-14.030021667480469,8.717886924743652
1715114154382881500,5.963881591796875,-1.9357120990753174,-14.183250427246094,8.00920295715332
1715114154392831500,5.97383154296875,-2.5773582458496094,-13.910311698913574,6.582259178161621
1715114154402781400,5.983781494140625,-2.9891607761383057,-12.799402236938477,5.686827659606934
1715114154412731100,5.993731201171875,-3.975571870803833,-12.143390655517578,4.020462989807129
1715114154422681000,6.00368115234375,-4.526238441467285,-12.315773963928223,0.639850378036499
1715114154432631000,6.013631103515625,-4.315548419952393,-12.646173477172852,-1.9027918577194214
1715114154442581000,6.0235810546875,-3.3530795574188232,-13.230358123779297,-3.2196028232574463
1715114154452531000,6.033531005859375,-1.9500772953033447,-13.608642578125,-3.0759506225585938
1715114154462480600,6.043480712890625,-0.5758054852485657,-13.867216110229492,-1.7304092645645142
1715114154472430600,6.0534306640625,1.7753005027770996,-14.4226713180542,-1.5628151893615723
1715114154482380500,6.063380615234375,4.15992546081543,-15.624560356140137,-1.898003339767456
1715114154492330500,6.07333056640625,5.816712856292725,-17.26219367980957,-3.1286230087280273
1715114154502280200,6.0832802734375,6.712144374847412,-18.569427490234375,-4.40233850479126
1715114154512230100,6.093230224609375,7.052121162414551,-19.282899856567383,-4.93385124206543
1715114154522180000,6.10318017578125,6.941987991333008,-19.551050186157227,-4.2060136795043945
1715114154532130000,6.113130126953125,7.3202714920043945,-19.546262741088867,-5.360019207000732
1715114154542080000,6.123080078125,6.941987991333008,-18.70829200744629,-7.773374557495117
1715114154552029700,6.13302978515625,-5.081693172454834,-17.31965446472168,-6.839635848999023
1715114154561979600,6.142979736328125,-11.48378849029541,-15.70117473602295,-6.849212646484375
1715114154571929600,6.1529296875,-7.796717643737793,-13.651738166809082,-6.858789443969727
1715114154581879600,6.162879638671875,-2.831143617630005,-10.955866813659668,-5.115810394287109
1715114154591829200,6.172829345703125,0.645237386226654,-7.972691535949707,-2.961029052734375
1715114154601779200,6.182779296875,3.1304187774658203,-5.640739440917969,-0.9546879529953003
1715114154611729200,6.192729248046875,6.343437194824219,-4.750096321105957,-0.46148237586021423
1715114154621679000,6.20267919921875,6.817489147186279,-3.691859006881714,2.258330821990967
1715114154631629000,6.212629150390625,4.428076267242432,-2.978386878967285,4.40353536605835
1715114154641578800,6.222578857421875,2.426523447036743,-3.5386300086975098,6.1321492195129395
1715114154651528700,6.23252880859375,-0.23582886159420013,-4.592078685760498,7.616554260253906
1715114154661478700,6.242478759765625,-1.5526398420333862,-5.779603004455566,8.416217803955078
1715114154671428600,6.2524287109375,-1.0019733905792236,-6.5265936851501465,7.492055892944336
1715114154681378300,6.26237841796875,-0.20709845423698425,-6.36378812789917,5.729923248291016
1715114154691328300,6.272328369140625,0.9469067454338074,-5.631162166595459,3.2974143028259277
1715114154701278200,6.2822783203125,2.7042508125305176,-4.654327869415283,1.18094003200531
1715114154711228200,6.292228271484375,4.811148166656494,-3.687070608139038,0.7499836683273315
1715114154721178000,6.30217822265625,6.48708963394165,-3.1316158771514893,-0.025737667456269264
1715114154731128000,6.312128173828125,6.913257598876953,-2.786850690841675,-1.3952209949493408
1715114154741078000,6.322078125,6.429628849029541,-2.513911724090576,-2.2858641147613525
1715114154751028000,6.332028076171875,5.5341973304748535,-2.279279947280884,-2.874837636947632
1715114154760978000,6.34197802734375,4.902127742767334,-1.9105730056762695,-3.1956608295440674
1715114154770927900,6.351927978515625,4.748898983001709,-1.6663644313812256,-3.487753391265869
1715114154780877800,6.3618779296875,4.4041337966918945,-1.479616641998291,-3.176506996154785
1715114154790827800,6.371827880859375,5.170278549194336,-1.7094600200653076,-2.1996726989746094
1715114154800777700,6.38177783203125,5.055356979370117,-2.4612393379211426,-2.8556840419769287
1715114154810727700,6.391727783203125,-0.07781155407428741,-4.261679172515869,-5.494094371795654
1715114154820677600,6.401677734375,-19.83955192565918,-8.149862289428711,-8.400654792785645
1715114154830627600,6.411627685546875,-37.76254653930664,-17.62132453918457,-10.148422241210938
1715114154840577500,6.42157763671875,-40.056190490722656,-28.02173614501953,-9.506776809692383
1715114154850527500,6.431527587890625,-16.387113571166992,-27.255592346191406,-1.8644845485687256
1715114154860477400,6.4414775390625,-10.631452560424805,-22.802377700805664,0.8122329115867615
1715114154870427400,6.451427490234375,-11.962628364562988,-16.10818862915039,0.5776011347770691
1715114154880377300,6.46137744140625,-10.870872497558594,-8.034940719604492,-1.6202759742736816
1715114154890327300,6.471327392578125,-8.20373249053955,-2.873042106628418,-3.8804023265838623
1715114154900277200,6.48127734375,-7.116764545440674,-0.9050082564353943,-5.479729175567627
1715114154910227200,6.491227294921875,-7.643488883972168,-2.030282974243164,-7.811681747436523
1715114154920177200,6.50117724609375,-4.966771602630615,-6.555324077606201,-9.190741539001465
1715114154930127000,6.511127197265625,4.279635429382324,-12.358869552612305,-9.803657531738281
1715114154940077000,6.5210771484375,14.967351913452148,-16.802507400512695,-8.22348403930664
1715114154950027000,6.531027099609375,11.419144630432129,-18.933347702026367,-4.134187698364258
1715114154959977000,6.54097705078125,1.3874398469924927,-18.47844886779785,2.957437753677368
1715114154969927000,6.550927001953125,-4.14795446395874,-16.970102310180664,3.3692402839660645
1715114154979876900,6.560876953125,-3.3004069328308105,-12.823344230651855,-2.9753942489624023
1715114154989826800,6.570826904296875,-4.444835662841797,-8.834604263305664,-4.986523628234863
1715114154999776800,6.58077685546875,-2.4145524501800537,-8.030152320861816,-8.108562469482422
1715114155009726700,6.590726806640625,5.012261390686035,-8.494627952575684,-9.248202323913574
1715114155019676700,6.6006767578125,9.460687637329102,-8.571242332458496,-7.371148586273193
1715114155029626600,6.610626708984375,10.638635635375977,-8.734047889709473,-5.072714805603027
1715114155039576600,6.62057666015625,10.164583206176758,-9.097966194152832,-3.71280837059021
1715114155049526500,6.630526611328125,8.565256118774414,-9.184157371520996,-2.7024552822113037
1715114155059476500,6.6404765625,6.654683589935303,-9.255983352661133,-2.2475569248199463
1715114155069426400,6.650426513671875,4.705803394317627,-9.41400146484375,-1.7639280557632446
1715114155079376400,6.66037646484375,3.139995574951172,-9.706093788146973,-1.3138182163238525
1715114155089326300,6.670326416015625,2.292448043823242,-9.96945571899414,-0.8876502513885498
1715114155099276300,6.6802763671875,0.36750996112823486,-10.486603736877441,-0.8684966564178467
1715114155109226200,6.690226318359375,-1.8351556062698364,-11.5065336227417,-0.9163807034492493
1715114155119176200,6.70017626953125,-2.165555477142334,-13.589488983154297,0.3381809890270233
1715114155129126100,6.710126220703125,0.22864626348018646,-14.54716968536377,3.862445831298828
1715114155139076000,6.720076171875,2.7712883949279785,-14.657302856445312,6.888716697692871
1715114155149026000,6.730026123046875,2.2206220626831055,-14.030021667480469,8.995614051818848
1715114155158976000,6.73997607421875,-2.117671489715576,-11.702857971191406,7.674015045166016
1715114155168926000,6.749926025390625,0.39145198464393616,-10.007762908935547,8.397064208984375
1715114155178876000,6.7598759765625,0.6548141837120056,-9.600749015808105,8.60775375366211
1715114155188825900,6.769825927734375,-0.8870517015457153,-9.21288776397705,7.515997886657715
1715114155198775800,6.77977587890625,-3.247734546661377,-8.418013572692871,6.160879611968994
1715114155208725800,6.789725830078125,-5.584475517272949,-7.637503623962402,3.359663486480713
1715114155218675700,6.79967578125,-5.608417510986328,-7.259219646453857,-0.10714052617549896
1715114155228625700,6.809625732421875,-4.344278812408447,-7.139509677886963,-3.0855274200439453
1715114155238575600,6.81957568359375,-2.7066450119018555,-7.1490864753723145,-4.043208122253418
1715114155248525600,6.829525634765625,-1.523909330368042,-7.177816867828369,-4.138976097106934
1715114155258475500,6.8394755859375,-0.7098808288574219,-7.24485445022583,-4.43585729598999
1715114155268425500,6.849425537109375,-0.585382342338562,-7.216124057769775,-4.4310688972473145
1715114155278375400,6.85937548828125,-1.5670050382614136,-7.005434036254883,-3.626616954803467
1715114155288325000,6.8693251953125,-4.832695960998535,-7.1921820640563965,-3.9905357360839844
1715114155298275000,6.879275146484375,-8.189367294311523,-8.08282470703125,-5.781398773193359
1715114155308225000,6.88922509765625,-6.3266777992248535,-9.083600997924805,-5.829282760620117
1715114155318175000,6.899175048828125,-1.8543092012405396,-10.15141487121582,-3.7894227504730225
1715114155328125000,6.909125,0.9181763529777527,-11.267112731933594,-1.2755109071731567
1715114155338075000,6.919074951171875,1.1671733856201172,-12.464214324951172,0.7451952695846558
1715114155348024800,6.92902490234375,0.1759738177061081,-13.546393394470215,2.4881742000579834
1715114155357974800,6.938974853515625,-1.0402805805206299,-13.996502876281738,4.796184539794922
1715114155367924700,6.9489248046875,-2.0266916751861572,-13.57512378692627,6.745064735412598
1715114155377874700,6.958874755859375,-2.2613234519958496,-13.211204528808594,7.70274543762207
1715114155387824600,6.96882470703125,-1.5430630445480347,-12.94305419921875,8.071452140808105
1715114155397774600,6.978774658203125,-0.6859387755393982,-12.861651420593262,8.272565841674805
1715114155407724500,6.988724609375,-0.8248024582862854,-12.947842597961426,8.540716171264648
1715114155417674500,6.998674560546875,-1.3946224451065063,-12.94305419921875,8.186373710632324
1715114155427624400,7.00862451171875,-1.5717934370040894,-13.148955345153809,6.429029941558838
1715114155437574400,7.018574462890625,-0.9684545993804932,-13.579912185668945,4.513668537139893
1715114155447524400,7.0285244140625,-0.7146692276000977,-13.532028198242188,4.800972938537598
1715114155457474300,7.038474365234375,-0.6236895322799683,-13.33570384979248,4.283825397491455
1715114155467424300,7.04842431640625,-1.016338586807251,-13.431471824645996,1.3150153160095215
1715114155477374200,7.058374267578125,-2.697068214416504,-13.330915451049805,-1.634641170501709
1715114155487324200,7.06832421875,-4.564545631408691,-13.723564147949219,-4.033631324768066
1715114155497274000,7.078274169921875,-4.9619832038879395,-13.79060173034668,-4.512471675872803
1715114155507224000,7.08822412109375,-3.4296939373016357,-13.412318229675293,-3.6170401573181152
1715114155517174000,7.098174072265625,-1.413776159286499,-13.623007774353027,-3.176506996154785
1715114155527124000,7.1081240234375,0.6548141837120056,-14.542381286621094,-2.7263972759246826
1715114155537074000,7.118073974609375,2.3738510608673096,-15.883133888244629,-2.7072436809539795
1715114155547024000,7.12802392578125,4.523844242095947,-17.448942184448242,-3.425503969192505
1715114155556973800,7.137973876953125,6.688202381134033,-18.631677627563477,-4.316147327423096
1715114155566923800,7.147923828125,7.9427642822265625,-19.254169464111328,-4.660912036895752
1715114155576873700,7.157873779296875,8.598775863647461,-19.589357376098633,-4.996100425720215
1715114155586823700,7.16782373046875,9.173383712768555,-19.27332305908203,-6.5954270362854
1715114155596773600,7.177773681640625,8.531737327575684,-18.11931800842285,-8.443750381469727
1715114155606723600,7.1877236328125,4.423287868499756,-15.959748268127441,-9.027935981750488
1715114155616673500,7.197673583984375,-10.937910079956055,-14.00607967376709,-6.370372295379639
1715114155626623500,7.20762353515625,-11.158177375793457,-13.096282958984375,-6.552331447601318
1715114155636573400,7.217573486328125,-6.029797077178955,-11.109095573425293,-5.345654010772705
1715114155646523400,7.2275234375,-1.7824832201004028,-9.069235801696777,-3.377619981765747
1715114155656473300,7.237473388671875,1.0666168928146362,-7.173028469085693,-1.8405425548553467
1715114155666423300,7.24742333984375,3.9636008739471436,-5.602431774139404,-1.060032844543457
1715114155676373200,7.257373291015625,6.736086368560791,-4.065354347229004,1.247977614402771
1715114155686323000,7.267322998046875,6.4200520515441895,-3.222595453262329,4.604648590087891
1715114155696273000,7.27727294921875,4.801571369171143,-3.4093432426452637,7.568670272827148
1715114155706222800,7.287222900390625,2.139219284057617,-4.5825018882751465,10.025120735168457
1715114155716172800,7.2971728515625,-1.2892776727676392,-6.382941722869873,10.700285911560059
1715114155726122800,7.307122802734375,-1.7872716188430786,-7.412448406219482,8.478466987609863
1715114155736072400,7.317072509765625,-0.628477931022644,-6.876147270202637,5.298966884613037
1715114155746022400,7.3270224609375,0.8942343592643738,-5.746084213256836,3.0819361209869385
1715114155755972400,7.336972412109375,2.455253839492798,-4.4292731285095215,1.875258445739746
1715114155765922300,7.34692236328125,3.8726212978363037,-3.4141316413879395,0.9750386476516724
1715114155775872000,7.3568720703125,4.863820552825928,-2.537853717803955,-0.1933317929506302
1715114155785822000,7.366822021484375,5.012261390686035,-1.7764976024627686,-1.5580267906188965
1715114155795772000,7.37677197265625,5.266046524047852,-1.2545616626739502,-2.5779566764831543
1715114155805721900,7.386721923828125,5.610811710357666,-0.871489405632019,-2.6402058601379395
1715114155815671800,7.396671875,5.194220542907715,-0.7086837291717529,-2.5252842903137207
1715114155825621500,7.40662158203125,4.791994571685791,-1.015141487121582,-3.0424318313598633
1715114155835571500,7.416571533203125,5.476736545562744,-0.9624691009521484,-2.6593594551086426
1715114155845521400,7.426521484375,5.87896203994751,-1.3024457693099976,-2.803011655807495
1715114155855471400,7.436471435546875,4.9164934158325195,-2.2218191623687744,-4.421492099761963
1715114155865421300,7.44642138671875,1.7705121040344238,-3.97916316986084,-6.576273441314697
1715114155875371000,7.45637109375,-10.688913345336914,-6.938396453857422,-7.845200538635254
1715114155885321000,7.466321044921875,-29.3780517578125,-14.173673629760742,-8.510788917541504
1715114155895271000,7.47627099609375,-39.970001220703125,-25.57486343383789,-6.15489387512207
1715114155905220900,7.486220947265625,-20.667945861816406,-28.103139877319336,-3.1908724308013916
1715114155915170600,7.496170654296875,-11.244368553161621,-23.56373405456543,-0.9690531492233276
1715114155925120500,7.50612060546875,-12.647370338439941,-17.683574676513672,-1.4095861911773682
1715114155935070500,7.516070556640625,-11.79024600982666,-10.093954086303711,-1.8836381435394287
1715114155945020400,7.5260205078125,-9.209297180175781,-4.716577529907227,-3.382408380508423
1715114155954970400,7.535970458984375,-7.083245754241943,-1.843535304069519,-4.727949619293213
1715114155964920000,7.545920166015625,-6.661866188049316,-1.3934253454208374,-6.164470672607422
1715114155974870000,7.5558701171875,-6.757634162902832,-3.9887399673461914,-7.936180114746094
1715114155984820000,7.565820068359375,-3.951629877090454,-9.11233139038086,-9.233837127685547
1715114155994770000,7.57577001953125,3.997119665145874,-14.154520034790039,-9.075819969177246
1715114156004719600,7.5857197265625,10.882843971252441,-17.176002502441406,-7.160458564758301
1715114156014669600,7.595669677734375,8.373720169067383,-18.066646575927734,-3.8947675228118896
1715114156024619500,7.60561962890625,-1.049857497215271,-17.659631729125977,1.5209165811538696
1715114156034569500,7.615569580078125,-7.916428089141846,-17.43936538696289,2.1577742099761963
1715114156044519400,7.62551953125,-5.215768337249756,-14.446613311767578,-3.664924144744873
1715114156054469000,7.63546923828125,-2.8598740100860596,-10.429142951965332,-4.498106479644775
1715114156064419000,7.645419189453125,-0.12090718746185303,-7.2783732414245605,-4.900332450866699
1715114156074369000,7.655369140625,6.846219539642334,-5.932831764221191,-4.349666118621826
1715114156084319000,7.665319091796875,12.721590995788574,-6.655880928039551,-3.5883097648620605
1715114156094269000,7.67526904296875,12.530055046081543,-7.8529815673828125,-3.1238346099853516
1715114156104219000,7.685218994140625,9.039308547973633,-8.609549522399902,-2.7551276683807373
1715114156114168800,7.6951689453125,6.065710067749023,-9.184157371520996,-2.9993362426757812
1715114156124118800,7.705118896484375,4.4041337966918945,-9.327810287475586,-2.7886464595794678
1715114156134068700,7.71506884765625,2.5989060401916504,-9.131484985351562,-1.8309657573699951
1715114156144018700,7.725018798828125,1.3108254671096802,-9.437943458557129,-1.5053542852401733
1715114156153968600,7.73496875,0.8176198601722717,-10.165780067443848,-1.8692729473114014
1715114156163918600,7.744918701171875,-0.456095427274704,-11.022904396057129,-1.5245078802108765
1715114156173868500,7.75486865234375,-0.06823474913835526,-11.84650993347168,0.8601169586181641
1715114156183818500,7.764818603515625,3.843890905380249,-12.258312225341797,4.992508888244629
1715114156193768400,7.7747685546875,6.065710067749023,-13.053187370300293,8.109759330749512
1715114156203718400,7.784718505859375,6.472724437713623,-13.397953033447266,9.024344444274902
1715114156213668400,7.79466845703125,6.175843238830566,-13.10107135772705,9.440936088562012
1715114156223618300,7.804618408203125,0.6404489278793335,-11.635820388793945,6.112995624542236
1715114156233568300,7.814568359375,-2.36188006401062,-9.921571731567383,3.397970676422119
1715114156243518200,7.824518310546875,-3.8510735034942627,-9.99339771270752,4.748300552368164
1715114156253468200,7.83446826171875,-6.384139060974121,-10.079588890075684,4.820126533508301
1715114156263418000,7.844418212890625,-8.471882820129395,-9.691728591918945,3.709217071533203
1715114156273368000,7.8543681640625,-8.553285598754883,-9.078812599182129,0.9367313981056213
1715114156283318000,7.864318115234375,-5.9340291023254395,-8.868123054504395,-2.5348610877990723
1715114156293268000,7.87426806640625,-2.8407204151153564,-8.743624687194824,-4.277839660644531
1715114156303218000,7.884218017578125,-0.973242998123169,-8.446743965148926,-5.067926406860352
1715114156313168000,7.89416796875,-0.35075053572654724,-8.08282470703125,-4.881178855895996
1715114156323117800,7.904117919921875,-0.5518634915351868,-7.623138427734375,-4.047996520996094
1715114156333067800,7.91406787109375,-1.5478514432907104,-7.321468830108643,-3.162141799926758
1715114156343017700,7.924017822265625,-4.449624061584473,-7.407660007476807,-3.8947675228118896
1715114156352967700,7.9339677734375,-8.974664688110352,-8.08282470703125,-5.628169536590576
1715114156362917600,7.943917724609375,-8.668207168579102,-8.848969459533691,-4.890755653381348
1715114156372867600,7.95386767578125,-3.95641827583313,-9.385271072387695,-2.386420488357544
1715114156382817500,7.963817626953125,0.04189852997660637,-9.84495735168457,0.14664486050605774
1715114156392767500,7.973767578125,1.7178397178649902,-10.400412559509277,1.8896236419677734
1715114156402717400,7.983717529296875,1.799242615699768,-11.080365180969238,2.8329391479492188
1715114156412667400,7.99366748046875,0.645237386226654,-11.693281173706055,3.244741916656494
1715114156422617300,8.003617431640626,-0.585382342338562,-12.06198787689209,3.4745852947235107
1715114156432567300,8.0135673828125,-1.5286977291107178,-12.133813858032227,4.116231441497803
1715114156442517200,8.023517333984374,-1.88782799243927,-12.023680686950684,5.1601033210754395
1715114156452467200,8.03346728515625,-1.600523829460144,-11.726799964904785,5.931035995483398
1715114156462417200,8.043417236328125,-1.159990668296814,-11.645397186279297,6.237493991851807
1715114156472367000,8.0533671875,-1.0019733905792236,-11.932701110839844,6.5295867919921875
1715114156482317000,8.063317138671875,-1.116895079612732,-12.569559097290039,6.448183536529541
1715114156492267000,8.07326708984375,-1.6915035247802734,-13.474567413330078,5.662885665893555
1715114156502217000,8.083217041015626,-2.917334794998169,-14.192827224731445,4.714781761169434
1715114156512167000,8.0931669921875,-4.396951198577881,-14.149731636047363,5.1601033210754395
1715114156522116900,8.103116943359375,-4.416105270385742,-13.656526565551758,3.8337154388427734
1715114156532066800,8.11306689453125,-3.511096715927124,-13.24472427368164,0.2950853705406189
1715114156542016800,8.123016845703125,-2.7497406005859375,-13.03403377532959,-1.955464243888855
1715114156551966500,8.132966552734375,-1.1312602758407593,-13.24472427368164,-2.4390928745269775
1715114156561916400,8.14291650390625,-0.27413609623908997,-13.704410552978516,-2.056020736694336
1715114156571866400,8.152866455078126,-0.5374982953071594,-14.302961349487305,-1.270722508430481
1715114156581816300,8.16281640625,-0.19273324310779572,-15.231911659240723,-1.6873136758804321
1715114156591766000,8.17276611328125,1.5550340414047241,-16.64927864074707,-2.846107244491577
1715114156601716000,8.182716064453125,3.954024076461792,-18.35873794555664,-3.9187095165252686
1715114156611666000,8.192666015625,6.204573631286621,-19.74258804321289,-4.565144062042236
1715114156621615900,8.202615966796875,7.679401874542236,-20.40338706970215,-4.536413669586182
1715114156631565800,8.21256591796875,8.028955459594727,-20.341136932373047,-3.7223851680755615
1715114156641515500,8.222515625,8.498218536376953,-19.934123992919922,-4.249109268188477
1715114156651465500,8.232465576171874,9.068038940429688,-19.115306854248047,-7.2322845458984375
1715114156661415400,8.24241552734375,8.254010200500488,-17.645265579223633,-9.985616683959961
1715114156671365400,8.252365478515625,0.669179379940033,-14.657302856445312,-8.740632057189941
1715114156681315000,8.262315185546875,-12.867636680603027,-12.54561710357666,-5.441421985626221
1715114156691265000,8.27226513671875,-9.621099472045898,-11.568782806396484,-5.3791728019714355
1715114156701215000,8.282215087890625,-3.999513864517212,-10.18493366241455,-4.445434093475342
1715114156711165000,8.2921650390625,0.02274491637945175,-8.245630264282227,-3.181295394897461
1715114156721115000,8.302114990234376,2.2158336639404297,-6.268020153045654,-0.7248445749282837
1715114156731064600,8.312064697265624,3.8055837154388428,-4.999093055725098,0.2759317457675934
1715114156741014500,8.3220146484375,5.021838188171387,-4.0749311447143555,1.8896236419677734
1715114156750964500,8.331964599609375,4.954800605773926,-3.663128614425659,5.385158061981201
1715114156760914400,8.34191455078125,3.604470729827881,-4.050989151000977,7.975684642791748
1715114156770864400,8.351864501953125,0.45848962664604187,-5.142745018005371,9.120112419128418
1715114156780814000,8.36181396484375,-1.9117701053619385,-6.67982292175293,8.387487411499023
1715114156790764000,8.371763916015626,-0.767341673374176,-7.0772600173950195,5.097854137420654
1715114156800714000,8.3817138671875,1.0522516965866089,-5.793968200683594,3.2638955116271973
1715114156810664000,8.391663818359374,2.3546974658966064,-4.41969633102417,2.521692991256714
1715114156820613600,8.401613525390625,3.250128746032715,-3.294421434402466,1.8465280532836914
1715114156830563600,8.4115634765625,3.6523547172546387,-2.513911724090576,0.8792705535888672
1715114156840513500,8.421513427734375,3.9636008739471436,-1.7812861204147339,-0.0065840547904372215
1715114156850463500,8.43146337890625,4.06894588470459,-1.1348515748977661,-0.7248445749282837
1715114156860413400,8.441413330078126,4.174290657043457,-0.45489832758903503,-1.4526818990707397
1715114156870363100,8.451363037109376,4.610035419464111,-0.26336219906806946,-1.811812162399292
1715114156880313000,8.46131298828125,5.031414985656738,-0.4884171485900879,-1.7591396570205688
1715114156890263000,8.471262939453124,5.716156482696533,-0.8379706144332886,-2.2475569248199463
1715114156900213000,8.481212890625,6.056133270263672,-1.1252747774124146,-2.7694928646087646
1715114156910162700,8.49116259765625,5.175066947937012,-1.699883222579956,-3.7463271617889404
1715114156920112600,8.501112548828125,2.144007682800293,-3.0406360626220703,-5.331288814544678
1715114156930062600,8.5110625,-10.947486877441406,-5.990292549133301,-7.375936985015869
1715114156940012500,8.521012451171876,-28.549657821655273,-12.981361389160156,-8.649652481079102
1715114156949962500,8.53096240234375,-39.0985107421875,-23.946805953979492,-6.12137508392334
1715114156959912200,8.540912109375,-20.725406646728516,-26.9012508392334,-2.7072436809539795
1715114156969862100,8.550862060546875,-7.533355712890625,-22.6730899810791,0.03651157766580582
1715114156979812000,8.56081201171875,-8.256404876708984,-16.859968185424805,-0.6242880821228027
1715114156989762000,8.570761962890625,-9.02254867553711,-10.079588890075684,-2.649782657623291
1715114156999711700,8.580711669921875,-8.127118110656738,-4.999093055725098,-5.637746334075928
1715114157009661700,8.59066162109375,-8.342596054077148,-2.207453966140747,-8.036736488342285
1715114157019611600,8.600611572265626,-7.983465671539307,-1.4939818382263184,-8.443750381469727
1715114157029561600,8.6105615234375,-7.648277282714844,-3.6391866207122803,-9.31045150756836
1715114157039511600,8.620511474609375,-7.887697696685791,-9.428366661071777,-12.054206848144531
1715114157049461200,8.630461181640625,-4.171896457672119,-15.375563621520996,-14.32869815826416
1715114157059411200,8.6404111328125,2.0913352966308594,-19.340360641479492,-13.84028148651123
1715114157069361200,8.650361083984375,3.4608185291290283,-19.80483627319336,-8.960898399353027
1715114157079311000,8.66031103515625,1.2246341705322266,-16.94137191772461,-1.0743980407714844
1715114157089261000,8.670260986328126,3.3267433643341064,-11.702857971191406,4.226364612579346
1715114157099211000,8.6802109375,5.720944881439209,-8.015787124633789,2.009333848953247
1715114157109161000,8.690160888671874,5.285200119018555,-7.522581577301025,-0.9020155072212219
1715114157119111000,8.70011083984375,5.208585739135742,-9.208099365234375,-4.411915302276611
1715114157129060900,8.710060791015625,5.371391296386719,-10.266336441040039,-5.790975570678711
1715114157139010800,8.7200107421875,6.884527206420898,-10.702081680297852,-4.775833606719971
1715114157148960800,8.729960693359375,8.526948928833008,-10.78348445892334,-3.205237627029419
1715114157158910700,8.73991064453125,8.005013465881348,-11.061211585998535,-2.803011655807495
1715114157168860700,8.749860595703124,5.974730491638184,-10.721235275268555,-1.878849744796753
1715114157178810600,8.759810546875,4.4041337966918945,-10.204087257385254,-1.2755109071731567
1715114157188760600,8.769760498046875,3.8151605129241943,-9.677363395690918,-0.40880993008613586
1715114157198710500,8.77971044921875,2.234987258911133,-9.514557838439941,0.3381809890270233
1715114157208660500,8.789660400390625,0.4297592043876648,-9.979032516479492,-0.06404489278793335
1715114157218610200,8.799610107421875,-0.9828197956085205,-11.200075149536133,-0.38965633511543274
1715114157228560100,8.80956005859375,-1.5191209316253662,-12.57913589477539,0.9510966539382935
1715114157238510000,8.819510009765626,0.42018240690231323,-13.057975769042969,4.288613796234131
1715114157248460000,8.8294599609375,2.8431146144866943,-13.35964584350586,7.5782470703125
1715114157258410000,8.839409912109375,4.140771865844727,-13.330915451049805,9.838373184204102
1715114157268360000,8.84935986328125,-0.17836803197860718,-12.234370231628418,8.952518463134766
1715114157278310000,8.859309814453125,-1.0067617893218994,-10.740388870239258,6.927023887634277
1715114157288259800,8.869259765625,-0.7769184708595276,-9.96945571899414,7.132925510406494
1715114157298209800,8.879209716796876,-3.0561983585357666,-9.509769439697266,6.654085159301758
1715114157308159700,8.88915966796875,-5.627571105957031,-8.772355079650879,4.532822132110596
1715114157318109700,8.899109619140624,-6.245275020599365,-7.982268333435059,2.296638011932373
1715114157328059600,8.9090595703125,-4.89494514465332,-7.3454108238220215,0.5392939448356628
1715114157338009600,8.919009521484375,-2.9460651874542236,-7.24485445022583,-1.3425486087799072
1715114157347959600,8.92895947265625,-0.7769184708595276,-7.489062786102295,-3.181295394897461
1715114157357909500,8.938909423828125,0.8846575021743774,-7.819462776184082,-4.622604846954346
1715114157367859500,8.948859375,1.2006921768188477,-7.905653953552246,-4.957793235778809
1715114157377809400,8.958809326171876,0.8319851160049438,-7.857769966125488,-4.100668907165527
1715114157387759400,8.96875927734375,-0.0347159244120121,-7.407660007476807,-1.567603588104248
1715114157397709300,8.978709228515624,-0.29807811975479126,-7.2783732414245605,-1.4814122915267944
1715114157407659300,8.9886591796875,-0.0586579404771328,-7.738059997558594,-4.330512523651123
1715114157417609200,8.998609130859375,-4.550180435180664,-8.14028549194336,-6.9689226150512695
1715114157427559200,9.00855908203125,-9.50617790222168,-8.935160636901855,-7.917026519775391
1715114157437509000,9.018509033203125,-7.56208610534668,-9.466673851013184,-5.4893059730529785
1715114157447459000,9.028458984375,-3.070563793182373,-9.821015357971191,-2.692878246307373
1715114157457409000,9.038408935546874,-0.2454056739807129,-10.6925048828125,-1.1653777360916138
1715114157467359000,9.04835888671875,0.3627215623855591,-11.659762382507324,0.002992752008140087
1715114157477309000,9.058308837890625,0.16639702022075653,-12.612654685974121,1.8800468444824219
1715114157487259000,9.0682587890625,-0.0011971008498221636,-13.441048622131348,4.3843817710876465
1715114157497208800,9.078208740234375,-0.8822633028030396,-13.809755325317383,6.524798393249512
1715114157507158500,9.088158447265625,-1.5526398420333862,-13.73314094543457,7.48726749420166
1715114157517108500,9.0981083984375,-1.499967336654663,-13.388376235961914,7.860762596130371
1715114157527058400,9.108058349609376,-1.0259153842926025,-12.981361389160156,7.951742172241211
1715114157537008400,9.11800830078125,-0.7864952683448792,-12.856863021850586,8.181585311889648
1715114157546958300,9.127958251953125,-1.3563152551651,-13.287819862365723,7.721899032592773
1715114157556908000,9.137907958984375,-2.079364061355591,-13.66610336303711,6.318896770477295
1715114157566858000,9.14785791015625,-2.586935043334961,-13.924676895141602,4.84406852722168
1715114157576808000,9.157807861328125,-3.286041736602783,-13.283031463623047,5.3564276695251465
1715114157586758000,9.1677578125,-3.0657753944396973,-12.627019882202148,4.633378982543945
1715114157596707600,9.17770751953125,-2.4432828426361084,-12.808979034423828,1.8034324645996094
1715114157606657500,9.187657470703124,-2.759317398071289,-13.153743743896484,-0.41359832882881165
1715114157616607500,9.197607421875,-2.7928361892700195,-13.369222640991211,-1.5532383918762207
1715114157626557400,9.207557373046875,-2.2661118507385254,-13.469779014587402,-2.4678235054016113
1715114157636507400,9.21750732421875,-1.6723499298095703,-13.259089469909668,-2.8556840419769287
1715114157646457000,9.22745703125,-0.8535329103469849,-13.388376235961914,-3.1429882049560547
1715114157656407000,9.237406982421875,0.5398924946784973,-14.025233268737793,-3.243544816970825
1715114157666357000,9.24735693359375,1.6699557304382324,-15.207969665527344,-3.3919851779937744
1715114157676307000,9.257306884765624,2.4887726306915283,-16.64927864074707,-3.516483783721924
1715114157686256600,9.267256591796874,3.843890905380249,-17.932571411132812,-3.401561975479126
1715114157696206600,9.27720654296875,5.78798246383667,-18.89504051208496,-2.779069662094116
1715114157706156500,9.287156494140625,7.51659631729126,-19.589357376098633,-3.339312791824341
1715114157716106500,9.2971064453125,9.08719253540039,-20.0538330078125,-5.197213172912598
1715114157726056400,9.307056396484375,9.714473724365234,-19.74737548828125,-7.529165744781494
1715114157736006100,9.317006103515626,8.933963775634766,-18.205509185791016,-8.649652481079102
1715114157745956000,9.3269560546875,0.48722004890441895,-15.04516315460205,-5.436633586883545
1715114157755906000,9.336906005859374,-11.124658584594727,-13.330915451049805,-2.2619221210479736
1715114157765856000,9.34685595703125,-8.826224327087402,-11.999738693237305,-3.052008628845215
1715114157775805700,9.3568056640625,-5.167884349822998,-10.271124839782715,-2.075174331665039
1715114157785755600,9.366755615234375,-1.8351556062698364,-8.303091049194336,-0.7200561761856079
1715114157795705600,9.37670556640625,2.3259668350219727,-6.129156112670898,1.8082208633422852
1715114157805655600,9.386655517578125,4.978742599487305,-5.525817394256592,3.0579941272735596
1715114157815605500,9.39660546875,3.906140089035034,-5.262455463409424,4.647744178771973
1715114157825555200,9.40655517578125,2.009932279586792,-5.310339450836182,6.754641532897949
1715114157835505200,9.416505126953124,1.0857704877853394,-6.229712963104248,7.956530570983887
1715114157845455000,9.426455078125,-0.25498247146606445,-7.101202011108398,7.817667007446289
1715114157855405000,9.436405029296875,-0.5518634915351868,-7.249642848968506,6.443395137786865
1715114157865355000,9.44635498046875,0.24779987335205078,-6.67982292175293,5.188833713531494
1715114157875304700,9.4563046875,1.3970166444778442,-5.722142219543457,3.8576574325561523
1715114157885254700,9.466254638671876,3.0107085704803467,-4.927267074584961,2.761113166809082
1715114157895204600,9.47620458984375,5.036203384399414,-4.0749311447143555,1.8273744583129883
1715114157905154600,9.486154541015624,6.817489147186279,-3.026270866394043,0.4626794755458832
1715114157915104300,9.496104248046874,8.105569839477539,-2.03507137298584,-0.7823054194450378
1715114157925054200,9.50605419921875,8.51258373260498,-1.1492167711257935,-1.4526818990707397
1715114157935004200,9.516004150390625,7.813477039337158,-0.2585737705230713,-2.012925148010254
1715114157944954000,9.5259541015625,6.1949968338012695,0.10055647045373917,-2.965817451477051
1715114157954904000,9.535904052734375,5.720944881439209,0.5506663918495178,-3.9905357360839844
1715114157964853800,9.545853759765626,6.209362030029297,0.9193734526634216,-4.282628059387207
1715114157974803700,9.5558037109375,6.415263652801514,0.5746083855628967,-3.928286552429199
1715114157984753700,9.565753662109374,7.0138139724731445,-0.49320554733276367,-3.181295394897461
1715114157994703600,9.57570361328125,3.891774892807007,-2.628833532333374,-5.795763969421387
1715114158004653300,9.5856533203125,-11.431116104125977,-6.3302693367004395,-10.933720588684082
1715114158014603300,9.595603271484375,-37.14963150024414,-14.963760375976562,-15.865776062011719
1715114158024553200,9.60555322265625,-45.40483856201172,-28.275522232055664,-9.209895133972168
1715114158034503200,9.615503173828126,-16.07107925415039,-29.96582794189453,-3.693654775619507
1715114158044453000,9.625453125,-11.095928192138672,-24.90448570251465,-1.5819687843322754
1715114158054402800,9.63540283203125,-13.681665420532227,-17.4537296295166,-0.9977835416793823
1715114158064352800,9.645352783203125,-10.890026092529297,-9.126696586608887,-1.146224021911621
1715114158074302700,9.655302734375,-7.03057336807251,-3.2130186557769775,-2.2236149311065674
1715114158084252700,9.665252685546875,-4.8901567459106445,-0.014365210197865963,-3.4590229988098145
1715114158094202400,9.675202392578125,-5.589263916015625,-1.4413094520568848,-5.479729175567627
1715114158104152300,9.68515234375,-3.558980941772461,-7.642292022705078,-8.218695640563965
1715114158114102300,9.695102294921876,5.457582950592041,-15.006855964660645,-9.530718803405762
1715114158124052200,9.70505224609375,11.78785228729248,-19.436128616333008,-7.672817707061768
1715114158134002200,9.715002197265624,5.562927722930908,-20.52788543701172,-3.861248731613159
1715114158143952100,9.7249521484375,-5.65151309967041,-18.387468338012695,1.568800687789917
1715114158153902000,9.734902099609375,-6.125565052032471,-14.001291275024414,0.9702502489089966
1715114158163852000,9.74485205078125,-2.3331496715545654,-9.528923034667969,-2.932298421859741
1715114158173802000,9.754802001953125,-1.404199242591858,-6.952761650085449,-4.21080207824707
1715114158183752000,9.764751953125,0.8224082589149475,-7.3693528175354,-6.667253017425537
1715114158193702000,9.774701904296874,7.339425086975098,-8.89685344696045,-7.955333709716797
1715114158203651800,9.78465185546875,11.241973876953125,-9.552865028381348,-5.790975570678711
1715114158213601800,9.794601806640625,11.462240219116211,-9.888052940368652,-3.535637378692627
1715114158223551700,9.8045517578125,9.580398559570312,-10.08437728881836,-3.052008628845215
1715114158233501700,9.814501708984375,6.597222805023193,-9.47146224975586,-2.324171304702759
1715114158243451600,9.82445166015625,5.184643745422363,-9.078812599182129,-1.6154875755310059
1715114158253401600,9.834401611328126,4.499902248382568,-9.155426979064941,-1.4718354940414429
1715114158263351600,9.8443515625,3.02986216545105,-9.47146224975586,-1.146224021911621
1715114158273301500,9.854301513671874,0.6117185354232788,-10.251971244812012,-0.8158242106437683
1715114158283251500,9.86425146484375,-0.729034423828125,-12.038045883178711,-0.0736217051744461
1715114158293201400,9.874201416015625,-0.15442600846290588,-14.140154838562012,2.449866771697998
1715114158303151400,9.8841513671875,2.053027868270874,-14.48970890045166,5.37558126449585
1715114158313101300,9.894101318359375,3.317166566848755,-14.441824913024902,6.831255912780762
1715114158323051300,9.90405126953125,0.29568392038345337,-13.39316463470459,6.567893981933594
1715114158333001200,9.914001220703126,-3.9037458896636963,-11.372458457946777,5.265448093414307
1715114158342951200,9.923951171875,-1.7489643096923828,-9.907206535339355,7.123348712921143
1715114158352901000,9.933901123046875,-2.01232647895813,-8.93037223815918,6.974907875061035
1715114158362851000,9.94385107421875,-4.607641220092773,-8.53293514251709,4.949413299560547
1715114158372801000,9.953801025390625,-6.36498498916626,-7.95832633972168,3.158550500869751
1715114158382751000,9.9637509765625,-5.905298709869385,-7.259219646453857,0.5009866952896118
1715114158392701000,9.973700927734376,-4.013879299163818,-6.766014099121094,-1.6011223793029785
1715114158402651000,9.98365087890625,-1.6723499298095703,-6.593631267547607,-3.119046211242676
1715114158412600800,9.993600830078124,0.25737667083740234,-6.871358871459961,-3.885190725326538
1715114158422550800,10.00355078125,1.3395558595657349,-7.101202011108398,-4.469376087188721
1715114158432500700,10.013500732421875,1.7513585090637207,-7.1251444816589355,-4.694430828094482
1715114158442450700,10.02345068359375,1.0091559886932373,-7.005434036254883,-2.9418752193450928
1715114158452400600,10.033400634765625,0.34356793761253357,-7.642292022705078,-2.6593594551086426
1715114158462350600,10.0433505859375,0.8750807046890259,-8.638279914855957,-4.574720859527588
1715114158472300500,10.053300537109376,-0.44173020124435425,-9.361329078674316,-5.340865612030029
1715114158482250500,10.06325048828125,-10.578780174255371,-10.002974510192871,-6.370372295379639
1715114158492200400,10.073200439453124,-13.614627838134766,-10.414777755737305,-4.929062843322754
1715114158502150400,10.083150390625,-6.422446250915527,-10.180145263671875,-2.3529016971588135
1715114158512100000,10.09310009765625,-0.34596213698387146,-10.60152530670166,-0.5716156363487244
1715114158522050000,10.103050048828125,2.206256866455078,-11.688492774963379,1.856104850769043
1715114158532000000,10.113,1.6938977241516113,-12.947842597961426,5.279813289642334
1715114158541950000,10.122949951171876,0.2621650993824005,-13.819332122802734,7.549516677856445
1715114158551900000,10.13289990234375,-0.7912836670875549,-14.178462028503418,8.071452140808105
1715114158561849600,10.142849609375,-1.2988544702529907,-14.556746482849121,7.784148216247559
1715114158571799600,10.152799560546875,-1.4903905391693115,-14.70518684387207,7.152079105377197
1715114158581749500,10.16274951171875,-2.3762452602386475,-14.686033248901367,6.160879611968994
1715114158591699500,10.172699462890625,-3.223792552947998,-14.690821647644043,5.480926036834717
1715114158601649200,10.182649169921875,-3.491943120956421,-14.686033248901367,5.552752494812012
1715114158611599000,10.19259912109375,-3.075352191925049,-14.561534881591797,6.084265232086182
1715114158621549000,10.202549072265626,-1.7920600175857544,-14.475343704223633,7.214328289031982
1715114158631499000,10.2124990234375,-0.6619967818260193,-14.264654159545898,6.194398403167725
1715114158641449000,10.222448974609375,-1.159990668296814,-13.345280647277832,2.4881742000579834
1715114158651398700,10.232398681640625,-3.156754970550537,-12.67011547088623,-0.7439981698989868
1715114158661348600,10.2423486328125,-3.8989574909210205,-12.583924293518066,-2.2810757160186768
1715114158671298600,10.252298583984375,-2.050633668899536,-12.507309913635254,-2.779069662094116
1715114158681248500,10.26224853515625,-0.48961424827575684,-12.60307788848877,-2.7311856746673584
1715114158691198200,10.2721982421875,0.27653029561042786,-13.287819862365723,-2.5923218727111816
1715114158701148200,10.282148193359374,1.3299790620803833,-14.791378021240234,-3.3919851779937744
1715114158711098000,10.29209814453125,2.890998601913452,-16.711528778076172,-4.282628059387207
1715114158721048000,10.302048095703125,4.241328239440918,-18.507179260253906,-4.349666118621826
1715114158730998000,10.311998046875,5.170278549194336,-19.484012603759766,-3.71280837059021
1715114158740947700,10.32194775390625,7.411251544952393,-19.93891143798828,-5.211578369140625
1715114158750897700,10.331897705078125,9.700108528137207,-19.718645095825195,-8.103774070739746
1715114158760847600,10.34184765625,10.001777648925781,-18.267759323120117,-9.674370765686035
1715114158770797600,10.351797607421876,7.468712329864502,-15.974113464355469,-8.635287284851074
1715114158780747300,10.361747314453124,1.1192892789840698,-13.589488983154297,-6.284181118011475
1715114158790697200,10.371697265625,-9.927556991577148,-12.516886711120605,-4.167706489562988
1715114158800647200,10.381647216796875,-8.10317611694336,-11.81299114227295,-4.656123638153076
1715114158810597000,10.39159716796875,-3.9228994846343994,-10.524910926818848,-2.965817451477051
1715114158820547000,10.401547119140625,-1.1791443824768066,-8.901641845703125,-1.0743980407714844
1715114158830496800,10.411496826171875,0.8176198601722717,-7.287950038909912,-0.1933317929506302
1715114158840446700,10.42144677734375,3.2405519485473633,-6.042964935302734,-0.36571431159973145
1715114158850396700,10.431396728515624,5.548562526702881,-4.807557106018066,1.0324994325637817
1715114158860346600,10.4413466796875,5.591658115386963,-4.122815132141113,4.805761337280273
1715114158870296300,10.45129638671875,3.575740337371826,-4.845864295959473,6.989273548126221
1715114158880246300,10.461246337890625,0.5446808934211731,-5.60722017288208,8.555081367492676
1715114158890196200,10.4711962890625,-1.3946224451065063,-6.833051681518555,8.181585311889648
1715114158900146200,10.481146240234375,-0.8870517015457153,-7.196970462799072,5.595848083496094
1715114158910096100,10.49109619140625,0.6404489278793335,-6.1770405769348145,3.493738889694214
1715114158920045800,10.5010458984375,1.9045875072479248,-4.7405195236206055,2.1290438175201416
1715114158929995800,10.510995849609374,2.981978178024292,-3.380612850189209,1.425148606300354
1715114158939945700,10.52094580078125,3.7864298820495605,-2.274491548538208,0.6446388363838196
1715114158949895700,10.530895751953125,4.394556999206543,-1.3407529592514038,-0.2603694200515747
1715114158959845600,10.540845703125,4.5190558433532715,-0.6703764796257019,-0.5045779943466187
1715114158969795300,10.55079541015625,4.921281814575195,-0.24420857429504395,-1.0360907316207886
1715114158979745300,10.560745361328125,5.294776916503906,-0.40701428055763245,-1.6298527717590332
1715114158989695200,10.5706953125,4.878185749053955,-0.9959878921508789,-1.9650410413742065
1715114158999645200,10.580645263671874,4.289212226867676,-1.7621324062347412,-2.3720552921295166
1715114159009595000,10.590594970703124,4.456806659698486,-2.121262788772583,-2.2475569248199463
1715114159019544800,10.600544921875,4.298789024353027,-2.499546527862549,-2.980182647705078
1715114159029494800,10.610494873046875,2.9676129817962646,-2.978386878967285,-4.359242916107178
1715114159039444700,10.62044482421875,-3.5158851146698,-4.4292731285095215,-5.278616428375244
1715114159049394700,10.630394775390625,-19.561824798583984,-8.911218643188477,-6.537966251373291
1715114159059344600,10.6403447265625,-31.949424743652344,-17.362751007080078,-8.079832077026367
1715114159069294600,10.650294677734376,-30.95343589782715,-24.85660171508789,-7.423820972442627
1715114159079244500,10.66024462890625,-15.295357704162598,-24.708162307739258,-0.8972271084785461
1715114159089194500,10.670194580078125,-10.056844711303711,-20.944477081298828,0.9654618501663208
1715114159099144400,10.68014453125,-9.659406661987305,-14.997279167175293,1.027711033821106
1715114159109094400,10.690094482421875,-8.309077262878418,-8.925583839416504,-0.9929951429367065
1715114159119044400,10.70004443359375,-6.53257942199707,-4.821922302246094,-4.033631324768066
1715114159128994300,10.709994384765626,-4.684255599975586,-2.1164743900299072,-5.858013153076172
1715114159138944300,10.7199443359375,-5.340266704559326,-0.646434485912323,-6.494870662689209
1715114159148894200,10.729894287109374,-5.771223068237305,-2.2170307636260986,-7.342418193817139
1715114159158844200,10.73984423828125,-3.975571870803833,-8.097189903259277,-9.358335494995117
1715114159168794000,10.749794189453125,3.9683892726898193,-15.049951553344727,-12.197858810424805
1715114159178744000,10.759744140625,9.9586820602417,-19.589357376098633,-11.005546569824219
1715114159188694000,10.769694091796875,5.409698963165283,-20.585346221923828,-6.183624267578125
1715114159198644000,10.77964404296875,-4.899733543395996,-20.020315170288086,0.25677812099456787
1715114159208593700,10.78959375,-9.501389503479004,-18.4257755279541,0.3860650360584259
1715114159218543600,10.799543701171874,-3.7457284927368164,-12.684480667114258,-1.7447744607925415
1715114159228493600,10.80949365234375,-0.7050924301147461,-7.445967197418213,-2.386420488357544
1715114159238443500,10.819443603515625,0.20470423996448517,-4.711789131164551,-3.8373067378997803
1715114159248393500,10.8293935546875,4.897339344024658,-5.238513469696045,-5.656899929046631
1715114159258343400,10.839343505859375,10.08318042755127,-7.163451671600342,-5.695207118988037
1715114159268293400,10.84929345703125,11.251550674438477,-8.987833023071289,-4.818929672241211
1715114159278243300,10.859243408203126,10.471040725708008,-9.514557838439941,-3.2100260257720947
1715114159288193300,10.869193359375,8.440757751464844,-9.404424667358398,-1.9506758451461792
1715114159298143200,10.879143310546874,6.008249282836914,-9.457097053527832,-2.185307502746582
1715114159308093200,10.88909326171875,3.7864298820495605,-9.313444137573242,-1.9267338514328003
1715114159318043100,10.899043212890625,1.5885528326034546,-9.165003776550293,-1.2228385210037231
1715114159327993000,10.9089931640625,-0.6045359373092651,-9.495404243469238,-1.0313023328781128
1715114159337943000,10.918943115234375,-2.495955228805542,-10.970232009887695,-1.083974838256836
1715114159347893000,10.92889306640625,-3.027467966079712,-12.51209831237793,0.228047713637352
1715114159357843000,10.938843017578124,0.3387795388698578,-12.923900604248047,4.178480625152588
1715114159367793000,10.94879296875,3.728969097137451,-13.263877868652344,7.587823867797852
1715114159377742800,10.958742919921875,4.6722846031188965,-13.283031463623047,8.569446563720703
1715114159387692800,10.96869287109375,0.851138710975647,-12.105083465576172,7.176021099090576
1715114159397642800,10.978642822265625,0.22385786473751068,-10.223240852355957,6.424241542816162
1715114159407592700,10.9885927734375,0.10893617570400238,-9.375694274902344,7.2574238777160645
1715114159417542700,10.998542724609376,-2.0266916751861572,-9.227252960205078,6.237493991851807
1715114159427492600,11.00849267578125,-4.037821292877197,-8.743624687194824,4.451419353485107
1715114159437442600,11.018442626953124,-4.468777656555176,-8.015787124633789,2.478597402572632
1715114159447392500,11.028392578125,-3.58292293548584,-7.393294811248779,0.2759317457675934
1715114159457342500,11.038342529296875,-2.673126220703125,-7.407660007476807,-1.6202759742736816
1715114159467292400,11.04829248046875,-1.3180080652236938,-7.733271598815918,-3.02327823638916
1715114159477242400,11.058242431640625,0.32441434264183044,-8.135497093200684,-4.263474464416504
1715114159487192300,11.0681923828125,1.5646108388900757,-8.379706382751465,-5.058349609375
1715114159497142300,11.078142333984376,0.8655039072036743,-8.456320762634277,-4.100668907165527
1715114159507092200,11.08809228515625,-1.5047557353973389,-8.465897560119629,-5.28340482711792
1715114159517042200,11.098042236328125,-7.356184959411621,-8.652645111083984,-10.277709007263184
1715114159526992100,11.1079921875,-11.08635139465332,-9.011775016784668,-12.480375289916992
1715114159536942000,11.117942138671875,-6.934805393218994,-8.65743350982666,-8.850765228271484
1715114159546891800,11.127891845703125,-1.523909330368042,-8.034940719604492,-4.704007625579834
1715114159556841700,11.137841796875,1.6699557304382324,-8.580819129943848,-1.7926585674285889
1715114159566791700,11.147791748046876,2.139219284057617,-9.768342971801758,0.15143325924873352
1715114159576741600,11.15774169921875,0.5542576909065247,-11.037269592285156,1.7938556671142578
1715114159586691300,11.16769140625,-1.4616601467132568,-12.349292755126953,3.1441853046417236
1715114159596641300,11.177641357421875,-2.558204412460327,-13.555970191955566,4.350862979888916
1715114159606591200,11.18759130859375,-2.61087703704834,-14.207192420959473,6.117784023284912
1715114159616541200,11.197541259765625,-1.9069817066192627,-14.259865760803223,8.10018253326416
1715114159626491100,11.2074912109375,-1.049857497215271,-14.053963661193848,9.196727752685547
1715114159636440800,11.21744091796875,-0.10175357013940811,-13.73314094543457,9.479243278503418
1715114159646390800,11.227390869140624,0.3818751573562622,-13.608642578125,9.292495727539062
1715114159656340700,11.2373408203125,-0.10175357013940811,-13.522451400756836,8.45931339263916
1715114159666290700,11.247290771484375,-0.9588778018951416,-13.33570384979248,7.372345447540283
1715114159676240400,11.257240478515625,-1.677138328552246,-12.957419395446777,6.553528785705566
1715114159686190300,11.2671904296875,-2.404975652694702,-12.287043571472168,6.970119476318359
1715114159696140300,11.277140380859375,-2.9891607761383057,-12.263101577758789,4.733935356140137
1715114159706090200,11.28709033203125,-3.5637693405151367,-12.804190635681152,0.8457517623901367
1715114159716040200,11.297040283203126,-4.234145641326904,-13.148955345153809,-2.137423515319824
1715114159725990000,11.306989990234374,-4.301183223724365,-13.795390129089355,-3.5260605812072754
1715114159735939800,11.31693994140625,-2.9316999912261963,-13.958195686340332,-3.4973301887512207
1715114159745889800,11.326889892578125,-1.0115501880645752,-13.713987350463867,-2.807800054550171
1715114159755839700,11.33683984375,0.5063736438751221,-13.934253692626953,-2.0177135467529297
1715114159765789700,11.346789794921875,1.9907786846160889,-14.393940925598145,-1.912368655204773
1715114159775739400,11.356739501953125,3.3937809467315674,-15.40429401397705,-2.367266893386841
1715114159785689300,11.366689453125,4.499902248382568,-16.70673942565918,-2.917933225631714
1715114159795639300,11.376639404296874,5.400122165679932,-17.62611198425293,-3.267486810684204
1715114159805589200,11.38658935546875,6.204573631286621,-18.339584350585938,-3.7271735668182373
1715114159815539000,11.3965390625,6.913257598876953,-18.933347702026367,-4.4741644859313965
1715114159825489000,11.406489013671875,7.6985554695129395,-19.235015869140625,-5.541978359222412
1715114159835438800,11.41643896484375,8.225279808044434,-18.502389907836914,-7.380725383758545
1715114159845388800,11.426388916015625,3.446453332901001,-16.270994186401367,-7.562684535980225
1715114159855338800,11.4363388671875,-9.975440979003906,-14.226346969604492,-4.986523628234863
1715114159865288400,11.446288330078126,-9.300276756286621,-12.847286224365234,-4.862025260925293
1715114159875238400,11.45623828125,-4.866214752197266,-10.960655212402344,-3.2339680194854736
1715114159885188400,11.466188232421874,-1.600523829460144,-8.561665534973145,-1.2084733247756958
1715114159895138300,11.47613818359375,2.0195090770721436,-6.689399719238281,0.1801636815071106
1715114159905088000,11.486087890625,5.064933776855469,-5.243301868438721,1.688510775566101
1715114159915038000,11.496037841796875,5.337872505187988,-4.639962673187256,3.5033156871795654
1715114159924988000,11.50598779296875,4.332307815551758,-4.304774761199951,5.322908878326416
1715114159934937900,11.515937744140626,3.0825347900390625,-4.4532151222229,6.989273548126221
1715114159944887800,11.5258876953125,1.4401123523712158,-5.243301868438721,8.358757019042969
1715114159954837500,11.53583740234375,-0.8774749040603638,-6.3302693367004395,7.707533836364746
1715114159964787500,11.545787353515625,-1.0115501880645752,-6.785167694091797,6.160879611968994
1715114159974737400,11.5557373046875,0.5303156971931458,-6.296750545501709,4.408323764801025
1715114159984687400,11.565687255859375,2.670732021331787,-5.588066577911377,2.8377275466918945
1715114159994637000,11.575636962890625,4.50947904586792,-4.898536682128906,1.6980875730514526
1715114160004587000,11.5855869140625,5.452794551849365,-4.218583583831787,0.49140989780426025
1715114160014537000,11.595536865234376,5.898116111755371,-3.5673606395721436,-0.657806932926178
1715114160024487000,11.60548681640625,6.204573631286621,-2.8203697204589844,-1.490989089012146
1715114160034436900,11.615436767578124,6.281188011169434,-2.231395959854126,-2.099116325378418
1715114160044386600,11.625386474609375,5.965153694152832,-1.6424223184585571,-2.20924973487854
1715114160054336500,11.63533642578125,5.160701751708984,-1.4987702369689941,-2.539649486541748
1715114160064286500,11.645286376953125,5.084087371826172,-1.4269442558288574,-3.1860837936401367
1715114160074236400,11.655236328125,5.8837504386901855,-1.335964560508728,-3.2148144245147705
1715114160084186400,11.665186279296876,6.35301399230957,-1.5275006294250488,-3.822941541671753
1715114160094136300,11.67513623046875,4.892550945281982,-2.4612393379211426,-5.4893059730529785
1715114160104086300,11.685086181640624,-1.1887211799621582,-4.611232280731201,-7.337629795074463
1715114160114036200,11.6950361328125,-20.715829849243164,-9.026140213012695,-9.755773544311523
1715114160123986200,11.704986083984375,-38.940494537353516,-18.382680892944336,-9.932944297790527
1715114160133936000,11.71493603515625,-32.10744094848633,-26.80069351196289,-6.485293865203857
1715114160143886000,11.724885986328125,-11.689689636230469,-24.214956283569336,-1.1366472244262695
1715114160153836000,11.7348359375,-10.913968086242676,-19.479225158691406,0.9319429993629456
1715114160163786000,11.744785888671874,-11.4263277053833,-13.187262535095215,0.596754789352417
1715114160173736000,11.75473583984375,-9.285911560058594,-7.4986395835876465,-0.8972271084785461
1715114160183686000,11.764685791015625,-6.915651798248291,-3.9647979736328125,-2.5923218727111816
1715114160193635800,11.7746357421875,-6.36498498916626,-2.7006595134735107,-4.909909248352051
1715114160203585800,11.784585693359375,-7.088034152984619,-5.2672438621521,-8.15644645690918
1715114160213535700,11.79453564453125,-4.080916881561279,-10.94150161743164,-10.579379081726074
1715114160223485700,11.804485595703126,3.1208419799804688,-16.52956771850586,-12.68627643585205
1715114160233435600,11.814435546875,7.229291915893555,-18.641254425048828,-11.101314544677734
1715114160243385600,11.824385498046874,2.2589292526245117,-17.44415283203125,-6.8827314376831055
1715114160253335600,11.83433544921875,-2.9939491748809814,-14.85362720489502,-2.4151508808135986
1715114160263285500,11.844285400390625,-2.9029695987701416,-11.525687217712402,-2.2619221210479736
1715114160273235500,11.8542353515625,-1.2413935661315918,-8.461109161376953,-3.310582399368286
1715114160283185400,11.864185302734375,-0.32680854201316833,-7.422025203704834,-3.755903959274292
1715114160293135400,11.87413525390625,2.8814218044281006,-8.53293514251709,-4.7806220054626465
1715114160303085300,11.884085205078126,8.35456657409668,-9.404424667358398,-3.5643677711486816
1715114160313035300,11.89403515625,12.02727222442627,-9.375694274902344,-0.921169102191925
1715114160322985200,11.903985107421875,11.074379920959473,-9.615114212036133,-0.6913257241249084
1715114160332935200,11.91393505859375,8.933963775634766,-9.739612579345703,-0.9786299467086792
1715114160342885000,11.923885009765625,6.329071998596191,-9.710882186889648,-1.1174936294555664
1715114160352835000,11.9338349609375,3.341108560562134,-9.883264541625977,-1.8501193523406982
1715114160362785000,11.943784912109376,0.7601590156555176,-9.797073364257812,-1.467047095298767
1715114160372735000,11.95373486328125,-1.404199242591858,-10.381258964538574,-1.0217255353927612
1715114160382685000,11.963684814453124,-2.409764051437378,-11.961431503295898,-0.31783026456832886
1715114160392635000,11.973634765625,-0.8583213090896606,-13.15853214263916,1.669357180595398
1715114160402584800,11.983584716796875,2.9724013805389404,-13.196839332580566,5.528810501098633
1715114160412534800,11.99353466796875,5.395333766937256,-13.187262535095215,8.650849342346191
1715114160422484700,12.003484619140625,6.740874767303467,-13.057975769042969,10.714651107788086
1715114160432434700,12.0134345703125,6.48708963394165,-12.622231483459473,11.07378101348877
1715114160442384600,12.023384521484376,2.0865468978881836,-10.596736907958984,6.567893981933594
1715114160452334600,12.03333447265625,-1.6388310194015503,-8.916007041931152,3.225588321685791
1715114160462284500,12.043284423828124,-5.148730754852295,-8.939949035644531,2.7563247680664062
1715114160472234500,12.053234375,-8.208520889282227,-8.604761123657227,1.9039889574050903
1715114160482184400,12.063184326171875,-9.515754699707031,-8.068459510803223,1.425148606300354
1715114160492134400,12.073134521484375,-8.467094421386719,-7.508216381072998,0.06524199992418289
1715114160502084400,12.08308447265625,-5.74249267578125,-7.527369976043701,-2.9945478439331055
1715114160512034000,12.093033935546876,-2.8167781829833984,-8.197746276855469,-5.259462356567383
1715114160521984000,12.10298388671875,-0.2885012924671173,-8.418013572692871,-5.771821975708008
1715114160531934000,12.112933837890624,1.5502456426620483,-7.805097579956055,-5.441421985626221
1715114160541884000,12.1228837890625,1.4736311435699463,-7.264008045196533,-4.287416458129883
1715114160551833900,12.132833740234375,0.669179379940033,-6.732495307922363,-2.4582467079162598
1715114160561783600,12.142783447265625,0.7410054206848145,-6.703764915466309,-3.5883097648620605
1715114160571733500,12.1527333984375,0.8032546639442444,-7.283161640167236,-4.948216438293457
1715114160581683500,12.162683349609376,-1.3180080652236938,-8.044517517089844,-5.297770023345947
1715114160591633400,12.17263330078125,-8.653841972351074,-9.457097053527832,-5.5324015617370605
1715114160601583000,12.1825830078125,-9.151836395263672,-10.496180534362793,-4.182071685791016
1715114160611533000,12.192532958984375,-4.425682067871094,-10.845733642578125,-2.1422119140625
1715114160621483000,12.20248291015625,-0.9445125460624695,-11.257535934448242,-0.6434416770935059
1715114160631433000,12.212432861328125,0.3531447649002075,-11.765107154846191,0.7739257216453552
1715114160641383000,12.2223828125,0.48243165016174316,-12.248735427856445,2.5121161937713623
1715114160651332600,12.23233251953125,0.09935937076807022,-12.540828704833984,4.010886192321777
1715114160661282600,12.242282470703126,-0.5614402890205383,-12.559982299804688,5.366004467010498
1715114160671232500,12.252232421875,-1.1408370733261108,-12.617443084716797,6.888716697692871
1715114160681182500,12.262182373046874,-1.3515268564224243,-12.914323806762695,7.841609001159668
1715114160691132200,12.272132080078125,-1.260547161102295,-13.201627731323242,8.210315704345703
1715114160701082000,12.28208203125,-0.9636662006378174,-13.39316463470459,8.167220115661621
1715114160711032000,12.292031982421875,-0.7050924301147461,-13.800178527832031,7.372345447540283
1715114160720982000,12.30198193359375,-0.8343793153762817,-14.255077362060547,6.060323238372803
1715114160730932000,12.311931884765626,-1.3084312677383423,-14.556746482849121,4.882375717163086
1715114160740881700,12.321881591796876,-2.448071241378784,-14.116212844848633,5.231929302215576
1715114160750831600,12.33183154296875,-3.5924997329711914,-13.220781326293945,5.533598899841309
1715114160760781600,12.341781494140625,-3.530250310897827,-13.057975769042969,2.4881742000579834
1715114160770731500,12.3517314453125,-3.511096715927124,-12.952630996704102,-1.1653777360916138
1715114160780681200,12.36168115234375,-4.703409194946289,-13.201627731323242,-3.4542346000671387
1715114160790631200,12.371631103515625,-4.104858875274658,-13.508086204528809,-3.5500025749206543
1715114160800581000,12.3815810546875,-1.8543092012405396,-13.235146522521973,-2.453458309173584
1715114160810531000,12.391531005859376,0.08978256583213806,-13.10107135772705,-1.1605892181396484
1715114160820481000,12.40148095703125,1.6172832250595093,-13.412318229675293,-1.2132617235183716
1715114160830430700,12.4114306640625,3.3746273517608643,-14.279019355773926,-2.3098061084747314
1715114160840380700,12.421380615234375,4.5190558433532715,-15.70117473602295,-3.2626984119415283
1715114160850330600,12.43133056640625,5.337872505187988,-17.02277374267578,-3.5452141761779785
1715114160860280600,12.441280517578125,5.778405666351318,-18.057069778442383,-3.5500025749206543
1715114160870230500,12.45123046875,6.003460884094238,-18.95250129699707,-4.062361717224121
1715114160880180200,12.46118017578125,6.645106792449951,-19.51274299621582,-5.034407615661621
1715114160890130200,12.471130126953126,7.727285861968994,-19.436128616333008,-7.304111003875732
1715114160900080000,12.481080078125,5.232527732849121,-17.879898071289062,-8.400654792785645
1715114160910030000,12.491030029296875,-8.098387718200684,-15.605406761169434,-5.441421985626221
1715114160919979800,12.500979736328125,-9.66419506072998,-14.034810066223145,-5.106233596801758
1715114160929929700,12.5109296875,-5.843049049377441,-11.97100830078125,-4.033631324768066
1715114160939879700,12.520879638671875,-1.8830395936965942,-9.830592155456543,-2.1326351165771484
1715114160949829600,12.53082958984375,1.459265947341919,-7.915230751037598,-0.3513490855693817
1715114160959779600,12.540779541015626,4.226963043212891,-6.268020153045654,0.9463081955909729
1715114160969729300,12.550729248046874,5.802347660064697,-4.8267107009887695,3.752312660217285
1715114160979679200,12.56067919921875,4.203021049499512,-4.228160381317139,6.026804447174072
1715114160989629200,12.570629150390625,2.2637176513671875,-4.668693542480469,6.850409507751465
1715114160999579100,12.5805791015625,0.9038111567497253,-5.5976433753967285,7.156867504119873
1715114161009528800,12.59052880859375,-0.9780313968658447,-6.382941722869873,6.812102317810059
1715114161019478800,12.600478759765625,-1.1121066808700562,-6.560112476348877,5.796960830688477
1715114161029428700,12.6104287109375,0.16639702022075653,-6.100425720214844,4.413112163543701
1715114161039378700,12.620378662109376,1.7896658182144165,-5.238513469696045,2.981379747390747
1715114161049328600,12.63032861328125,3.6762967109680176,-4.165910720825195,2.3493103981018066
1715114161059278300,12.6402783203125,4.81593656539917,-3.141192674636841,1.0851719379425049
1715114161069228300,12.650228271484375,5.6634840965271,-2.1068975925445557,-0.20769700407981873
1715114161079178200,12.66017822265625,6.075286865234375,-1.158793568611145,-1.3808557987213135
1715114161089128200,12.670128173828125,6.534973621368408,-0.8810662031173706,-2.8365304470062256
1715114161099078000,12.680077880859375,6.343437194824219,-0.6655880808830261,-3.3488895893096924
1715114161109027800,12.69002783203125,5.433640956878662,-0.5650315880775452,-3.468599796295166
1715114161118977800,12.699977783203124,4.763264179229736,-0.507570743560791,-3.6745009422302246
1715114161128927700,12.709927734375,4.921281814575195,-0.5746083855628967,-3.3201591968536377
