time,seconds_elapsed,z,y,x
1714858335808870000,0.149869873046875,-0.6911840438842773,0.5141391754150391,-0.4442073702812195
1714858335818819300,0.1598193359375,-0.4350414276123047,0.36437320709228516,-0.38378554582595825
1714858335828768800,0.169768798828125,-0.17116069793701172,0.24361228942871094,-0.17246615886688232
1714858335838718200,0.17971826171875,-0.029517173767089844,0.19675016403198242,0.0812603011727333
1714858335848667600,0.189667724609375,-0.21902179718017578,0.18115901947021484,0.276958703994751
1714858335858617000,0.1996171875,-0.5639591217041016,0.22356224060058594,0.3704463839530945
1714858335868566300,0.209566162109375,-0.8535680770874023,0.30589818954467773,0.37786048650741577
1714858335878515700,0.219515625,-0.9781923294067383,0.3299293518066406,0.28758880496025085
1714858335888465200,0.229465087890625,-1.056680679321289,0.250185489654541,0.08211466670036316
1714858335898414600,0.23941455078125,-1.0471258163452148,0.1903057098388672,-0.1192692220211029
1714858335908364000,0.249364013671875,-0.9539403915405273,0.2624502182006836,-0.28372979164123535
1714858335918313500,0.2593134765625,-0.8167343139648438,0.3462691307067871,-0.3295772671699524
1714858335928263000,0.269262939453125,-0.6680002212524414,0.3446803092956543,-0.24027091264724731
1714858335938212400,0.27921240234375,-0.48799610137939453,0.277895450592041,-0.22072334587574005
1714858335948161800,0.289161865234375,-0.2306499481201172,0.24802160263061523,-0.35219526290893555
1714858335958111200,0.299111328125,-0.034397125244140625,0.20967626571655273,-0.3488333821296692
1714858335968060700,0.309060791015625,-0.015324592590332031,0.15801000595092773,-0.09616081416606903
1714858335978010000,0.319010009765625,-0.27240753173828125,0.13481998443603516,0.1913509964942932
1714858335987959600,0.32895947265625,-0.5345296859741211,0.22417736053466797,0.2962585687637329
1714858335997909000,0.338908935546875,-0.5359878540039062,0.40662097930908203,0.12242895364761353
1714858336007858400,0.3488583984375,-0.32769107818603516,0.5458335876464844,-0.15523585677146912
1714858336017808000,0.358807861328125,-0.2386941909790039,0.5391535758972168,-0.34937000274658203
1714858336027757300,0.36875732421875,-0.15778827667236328,0.49219274520874023,-0.4227924644947052
1714858336037706800,0.378706787109375,-0.042819976806640625,0.526771068572998,-0.4303058981895447
1714858336047656200,0.38865625,0.04561901092529297,0.4676780700683594,-0.28396064043045044
1714858336057605600,0.398605712890625,0.09007644653320312,0.28475093841552734,0.04089871048927307
1714858336067554800,0.408554931640625,0.09622764587402344,0.08883333206176758,0.32224613428115845
1714858336077504300,0.418504150390625,-0.09278202056884766,-0.08808279037475586,0.5088257193565369
1714858336087454000,0.428453857421875,-0.37888240814208984,-0.19553565979003906,0.4434497356414795
1714858336097403400,0.4384033203125,-0.43114662170410156,-0.07300853729248047,0.14847463369369507
1714858336107352800,0.448352783203125,-0.2527170181274414,0.21640300750732422,-0.12476329505443573
1714858336117302300,0.45830224609375,0.05805015563964844,0.33655261993408203,-0.45805615186691284
1714858336127251700,0.468251708984375,0.49131107330322266,0.20802879333496094,-0.677284836769104
1714858336137201200,0.478201171875,1.2954092025756836,0.1349620819091797,-0.5525945425033569
1714858336147150600,0.488150634765625,2.101285934448242,0.08608245849609375,-0.3349479138851166
1714858336157100300,0.498100341796875,2.5152673721313477,-0.13779830932617188,-0.2717949450016022
1714858336167049700,0.5080498046875,2.445389747619629,-0.2704768180847168,-0.12053057551383972
1714858336176999200,0.517999267578125,1.8042192459106445,-0.2730541229248047,-0.23583635687828064
1714858336186948600,0.527948486328125,0.8818445205688477,-0.15648126602172852,-0.48596078157424927
1714858336196898000,0.53789794921875,-0.02621936798095703,0.13456964492797852,-0.36156395077705383
1714858336206847500,0.547847412109375,-0.7478570938110352,0.0910792350769043,0.19121231138706207
1714858336216797200,0.557797119140625,-0.5543451309204102,-0.06284379959106445,0.9939368963241577
1714858336226746600,0.56774658203125,-0.02535724639892578,0.06906700134277344,1.6358363628387451
1714858336236696000,0.577696044921875,0.12096500396728516,0.14316463470458984,1.984017252922058
1714858336246645500,0.5876455078125,-0.16022109985351562,0.08206033706665039,2.053471088409424
1714858336256595000,0.597594970703125,-0.4110107421875,-0.05716133117675781,2.1099703311920166
1714858336266544400,0.60754443359375,-0.5231857299804688,-0.2783222198486328,1.8563437461853027
1714858336276493800,0.617493896484375,-0.7243471145629883,-0.3879847526550293,1.1326922178268433
1714858336286443500,0.627443603515625,-1.0521564483642578,-0.38535451889038086,0.13570016622543335
1714858336296393000,0.63739306640625,-1.0502872467041016,-0.16466999053955078,-0.5009961128234863
1714858336306342400,0.64734228515625,-0.7801675796508789,-0.032428741455078125,-0.6457717418670654
1714858336316291800,0.657291748046875,-0.3290281295776367,-0.3112621307373047,-0.4690348505973816
1714858336326241300,0.6672412109375,0.07149314880371094,-0.348452091217041,0.1118428111076355
1714858336336190700,0.677190673828125,0.05997657775878906,-0.35036420822143555,0.5369437336921692
1714858336346140400,0.687140380859375,-0.4492778778076172,-0.8502182960510254,0.3298218250274658
1714858336356089900,0.69708984375,-1.0894355773925781,-1.0363538265228271,-0.03385818004608154
1714858336366039300,0.707039306640625,-1.3574681282043457,-1.0036447048187256,-0.6395969390869141
1714858336375988700,0.71698876953125,-0.6439685821533203,-1.3967196941375732,-1.3153066635131836
1714858336385938200,0.726938232421875,-0.14043617248535156,-1.2730481624603271,-2.0515968799591064
1714858336395887600,0.7368876953125,-0.9033088684082031,-1.3809404373168945,-2.5827202796936035
1714858336405837000,0.746837158203125,-2.1016407012939453,-1.4906654357910156,-1.7591817378997803
1714858336415786800,0.756786865234375,-2.816530227661133,-0.8115148544311523,-1.5895195007324219
1714858336425736200,0.766736083984375,-3.1770925521850586,0.22494745254516602,-1.6493473052978516
1714858336435685600,0.776685546875,-3.549224376678467,0.7687187194824219,-1.4554507732391357
1714858336445635000,0.786635009765625,-3.623246192932129,0.7655224800109863,-1.1177546977996826
1714858336455584500,0.79658447265625,-2.5405049324035645,0.07122492790222168,0.039264678955078125
1714858336465534000,0.806533935546875,-0.14429378509521484,-0.5557031631469727,1.2047491073608398
1714858336475483600,0.816483642578125,1.6870088577270508,-0.693831205368042,1.7311218976974487
1714858336485433000,0.82643310546875,3.2555665969848633,-0.1404588222503662,0.5497770309448242
1714858336495382500,0.836382568359375,6.9419660568237305,1.416809320449829,-0.7641289234161377
1714858336505332000,0.84633203125,8.249700546264648,2.1881420612335205,-1.047729253768921
1714858336515281400,0.856281494140625,6.844513893127441,1.9080140590667725,-0.2587094306945801
1714858336525230800,0.86623095703125,4.218141555786133,1.0605356693267822,0.029555439949035645
1714858336535180300,0.87618017578125,1.1777992248535156,0.3007395267486572,-1.12041437625885
1714858336545130000,0.8861298828125,-1.3691644668579102,0.5490870475769043,-0.8645845651626587
1714858336555079400,0.896079345703125,-4.481192588806152,1.003638744354248,-0.8177947998046875
1714858336565028900,0.90602880859375,-7.5246171951293945,1.156949520111084,-2.82059907913208
1714858336574978300,0.915978271484375,-5.195927143096924,0.2427537441253662,-5.658459186553955
1714858336584927700,0.925927734375,-3.527031898498535,-1.392554521560669,-9.040599822998047
1714858336594877200,0.935877197265625,-3.583301544189453,1.2341606616973877,-3.1375181674957275
1714858336604827000,0.945826904296875,3.0371294021606445,3.2150285243988037,4.139008522033691
1714858336614776300,0.9557763671875,4.03994083404541,2.6961708068847656,6.655673980712891
1714858336624725800,0.965725830078125,2.0022592544555664,0.7461183071136475,5.414474010467529
1714858336634675200,0.97567529296875,1.7407808303833008,-1.6882166862487793,3.3955764770507812
1714858336644624600,0.985624755859375,2.951700210571289,-2.101806640625,1.7667180299758911
1714858336654574000,0.995573974609375,5.113266944885254,-0.5364892482757568,0.993108868598938
1714858336664523500,1.0055234375,5.154949188232422,0.8978750705718994,0.007861733436584473
1714858336674473200,1.01547314453125,2.5169668197631836,0.4993884563446045,-1.3184236288070679
1714858336684422700,1.025422607421875,-0.1595001220703125,-0.34125590324401855,-2.238804340362549
1714858336694372000,1.0353720703125,-1.5678691864013672,-0.11379456520080566,-2.365109443664551
1714858336704321500,1.045321533203125,-1.8599319458007812,0.5110282897949219,-2.6866912841796875
1714858336714271000,1.05527099609375,-1.7423934936523438,0.5234944820404053,-2.6317856311798096
1714858336724220400,1.065220458984375,-1.9636588096618652,-0.010582923889160156,-2.018709182739258
1714858336734170000,1.075170166015625,-2.2011256217956543,-0.32681989669799805,-0.9844719171524048
1714858336744119600,1.08511962890625,-1.9380555152893066,-0.10054326057434082,0.7107102274894714
1714858336754069000,1.095069091796875,-1.1999454498291016,0.2547016143798828,2.213926315307617
1714858336764018400,1.105018310546875,-0.6073551177978516,0.38299560546875,3.064526319503784
1714858336773968000,1.1149677734375,0.29221439361572266,0.5242137908935547,3.6651101112365723
1714858336783917300,1.124917236328125,1.2108278274536133,0.3234100341796875,2.9838309288024902
1714858336793866800,1.13486669921875,2.0942068099975586,-0.4725987911224365,0.7179440259933472
1714858336803816400,1.14481640625,2.937957763671875,-0.8371238708496094,-0.8909386396408081
1714858336813766000,1.154765869140625,3.174386978149414,-1.0898687839508057,-1.1589984893798828
1714858336823715300,1.16471533203125,2.509613037109375,-1.2080004215240479,-0.11726802587509155
1714858336833664800,1.174664794921875,0.38903331756591797,-1.367675542831421,1.877351999282837
1714858336843614200,1.1846142578125,-0.762913703918457,-1.2363462448120117,3.677276134490967
1714858336853563600,1.194563720703125,-1.393157958984375,-0.8865933418273926,4.398087978363037
1714858336863513300,1.204513427734375,-0.9669008255004883,-0.8736071586608887,4.1615071296691895
1714858336873462800,1.214462890625,-0.07361984252929688,-0.45629405975341797,3.2317399978637695
1714858336883412200,1.224412109375,0.5142221450805664,-0.03101634979248047,1.7419389486312866
1714858336893361700,1.234361572265625,-0.7592086791992188,-0.07437372207641602,0.49030202627182007
1714858336903311000,1.24431103515625,-3.3800559043884277,-0.06486320495605469,-0.4932069778442383
1714858336913260500,1.254260498046875,-4.924463272094727,-0.21445512771606445,-1.467559814453125
1714858336923210000,1.2642099609375,-4.9761738777160645,-0.5233383178710938,-1.8001694679260254
1714858336933159700,1.27415966796875,-4.579734802246094,0.2788996696472168,-0.6634537577629089
1714858336943109000,1.284109130859375,-3.955334186553955,0.7707080841064453,0.7436696887016296
1714858336953058600,1.29405859375,-3.268645763397217,0.6181588172912598,1.027854561805725
1714858336963008000,1.304008056640625,-2.5463714599609375,0.2098841667175293,0.5376419425010681
1714858336972957400,1.31395751953125,-1.046318531036377,-0.09542465209960938,0.8715307712554932
1714858336982907000,1.323906982421875,1.5826845169067383,-0.16549921035766602,1.3215265274047852
1714858336992856600,1.333856689453125,3.243189811706543,-0.745457649230957,0.9868313074111938
1714858337002806000,1.343805908203125,3.1768980026245117,-0.9545488357543945,0.5309775471687317
1714858337012755500,1.35375537109375,2.6158533096313477,-0.3505392074584961,0.5223515033721924
1714858337022705000,1.363704833984375,1.700479507446289,0.16065120697021484,0.7661362886428833
1714858337032654300,1.373654296875,0.4309263229370117,0.25767993927001953,0.8411151766777039
1714858337042603800,1.383603759765625,-0.44141483306884766,0.1882476806640625,0.4503384232521057
1714858337052553200,1.39355322265625,-0.7290849685668945,0.16141128540039062,-0.05819821357727051
1714858337062503000,1.4035029296875,-0.7926368713378906,0.12620830535888672,-0.12115269899368286
1714858337072452400,1.413452392578125,0.41324329376220703,0.364504337310791,-0.013912320137023926
1714858337082401800,1.42340185546875,1.9641447067260742,0.7521519660949707,0.3129154443740845
1714858337092351200,1.433351318359375,2.3139162063598633,0.6071949005126953,0.9214102029800415
1714858337102300700,1.44330078125,1.3462629318237305,0.4375729560852051,1.636669635772705
1714858337112250000,1.45325,0.4204902648925781,0.5882382392883301,1.5576847791671753
1714858337122199600,1.463199462890625,0.5159482955932617,0.7116589546203613,0.8482663631439209
1714858337132149200,1.473149169921875,0.7023944854736328,0.6259479522705078,-0.3710561990737915
1714858337142098700,1.4830986328125,1.3522777557373047,0.9786896705627441,-1.0353950262069702
1714858337152048000,1.493048095703125,2.3435821533203125,1.1737279891967773,-1.671334147453308
1714858337161997600,1.50299755859375,3.3040523529052734,1.234367847442627,-1.733015537261963
1714858337171947000,1.512947021484375,3.7189836502075195,0.5008854866027832,-1.9936201572418213
1714858337181896400,1.522896484375,1.6538152694702148,0.043025970458984375,-0.7473046183586121
1714858337191846100,1.53284619140625,-1.3049345016479492,0.5518670082092285,1.5251202583312988
1714858337201795600,1.542795654296875,-2.296825408935547,0.17077016830444336,1.9381821155548096
1714858337211745000,1.5527451171875,-2.48698091506958,-0.3732261657714844,1.5218706130981445
1714858337221694500,1.562694580078125,-2.313343048095703,-0.1695384979248047,1.0291717052459717
1714858337231644000,1.572643798828125,-1.752382755279541,-0.3175783157348633,0.3209068775177002
1714858337241593300,1.58259326171875,-1.5500426292419434,0.5443587303161621,1.0623064041137695
1714858337251542800,1.592542724609375,-0.894805908203125,0.6551351547241211,0.05679526925086975
1714858337261492500,1.602492431640625,-0.1959686279296875,0.06599044799804688,-0.4241165220737457
1714858337271442000,1.61244189453125,0.5879392623901367,-0.6219315528869629,-0.6202600002288818
1714858337281391400,1.622391357421875,0.9009418487548828,0.22804737091064453,0.7756916284561157
1714858337291340800,1.6323408203125,0.7842369079589844,0.2473311424255371,0.7759151458740234
1714858337301290200,1.642290283203125,0.25691986083984375,-0.19988775253295898,0.0071154385805130005
1714858337311239700,1.65223974609375,-0.08703136444091797,-0.724982738494873,-0.43656226992607117
1714858337321189400,1.662189453125,-0.2658805847167969,-0.7480654716491699,-0.18373894691467285
1714858337331138800,1.672138916015625,-0.7727127075195312,-0.3112673759460449,0.46836069226264954
1714858337341088300,1.682088134765625,-1.50346040725708,0.0037355422973632812,0.8284839391708374
1714858337351037700,1.69203759765625,-2.355616569519043,0.06653690338134766,0.6918190717697144
1714858337360987100,1.701987060546875,-2.7745003700256348,0.036237239837646484,0.5098385810852051
1714858337370936600,1.7119365234375,-2.3240184783935547,-0.04396247863769531,0.13075125217437744
1714858337380886000,1.721885986328125,-1.610246181488037,0.20035743713378906,0.49022775888442993
1714858337390835700,1.731835693359375,-1.0471782684326172,0.3585972785949707,0.9589146971702576
1714858337400785200,1.74178515625,0.12445545196533203,0.22690963745117188,0.9213305711746216
1714858337410734600,1.751734619140625,2.1541080474853516,0.06086540222167969,0.210687518119812
1714858337420684000,1.76168408203125,3.2746524810791016,-0.2159132957458496,-0.499454140663147
1714858337430633500,1.771633544921875,3.5196142196655273,-0.5021874904632568,-0.427030086517334
1714858337440583000,1.7815830078125,3.7754945755004883,-0.3640275001525879,0.0435032844543457
1714858337450532600,1.79153271484375,3.7309226989746094,-0.4603402614593506,0.31631970405578613
1714858337460482000,1.80148193359375,3.141447067260742,-0.6724302768707275,0.45703721046447754
1714858337470431500,1.811431396484375,2.1033859252929688,-0.5502722263336182,0.3854271173477173
1714858337480381000,1.821380859375,0.8520650863647461,-0.49567699432373047,-0.04704570770263672
1714858337490330400,1.831330322265625,-0.16480255126953125,-0.5520591735839844,-0.5778012275695801
1714858337500279800,1.84127978515625,-0.6144380569458008,-0.4282693862915039,-0.7527223825454712
1714858337510229200,1.851229248046875,-0.2528543472290039,-0.3159775733947754,-0.7038501501083374
1714858337520179000,1.861178955078125,0.5042324066162109,-0.27945899963378906,-0.8819707632064819
1714858337530128400,1.87112841796875,0.4221353530883789,-0.23674392700195312,-0.5781484842300415
1714858337540077800,1.881077880859375,-0.10101604461669922,-0.34117650985717773,0.13931262493133545
1714858337550027300,1.89102734375,-0.39166736602783203,-0.6546168327331543,0.5345488786697388
1714858337559976700,1.900976806640625,-0.4600353240966797,-0.7552962303161621,0.6315138936042786
1714858337569926100,1.910926025390625,-0.6891260147094727,-0.6867485046386719,0.6575866937637329
1714858337579875800,1.920875732421875,-0.7555742263793945,-0.829620361328125,0.542346179485321
1714858337589825300,1.9308251953125,-0.6215839385986328,-0.8267765045166016,0.21882426738739014
1714858337599774700,1.940774658203125,-0.6108188629150391,-0.7045402526855469,0.06100165843963623
1714858337609724200,1.95072412109375,-0.7745580673217773,-0.6638517379760742,0.0596616268157959
1714858337619673600,1.960673583984375,-0.6013936996459961,-0.637671947479248,0.11873281002044678
1714858337629623000,1.970623046875,-0.15274810791015625,-0.4859809875488281,0.17637163400650024
1714858337639572500,1.980572509765625,0.24819374084472656,-0.3372645378112793,0.3431794047355652
1714858337649522200,1.990522216796875,0.14889144897460938,-0.3061065673828125,0.8731223344802856
1714858337659471600,2.0004716796875,-0.04548168182373047,-0.45915794372558594,1.4444174766540527
1714858337669421000,2.010421142578125,0.30817127227783203,-0.4795818328857422,1.8739805221557617
1714858337679370500,2.02037060546875,0.7129640579223633,-0.43712854385375977,2.1453943252563477
1714858337689320000,2.03031982421875,1.1501140594482422,-0.4623398780822754,2.0710432529449463
1714858337699269400,2.040269287109375,1.6160202026367188,-0.5298385620117188,1.8747811317443848
1714858337709219000,2.050218994140625,1.6203346252441406,-0.5078458786010742,2.03555965423584
1714858337719168500,2.06016845703125,1.8267536163330078,-0.604581356048584,1.8338263034820557
1714858337729118000,2.070117919921875,2.360342025756836,-0.7234477996826172,1.6021089553833008
1714858337739067400,2.0800673828125,2.517047882080078,-0.9205117225646973,1.883521318435669
1714858337749016800,2.090016845703125,2.4530715942382812,-0.9536576271057129,2.322775363922119
1714858337758966300,2.09996630859375,2.5193252563476562,-0.850278377532959,2.377835273742676
1714858337768915700,2.109915771484375,2.3266258239746094,-0.7062482833862305,1.9646637439727783
1714858337778865400,2.119865478515625,1.721755027770996,-0.7044763565063477,0.7106906175613403
1714858337788814800,2.12981494140625,1.2334022521972656,-0.801455020904541,-0.9992164373397827
1714858337798764300,2.139764404296875,0.6677694320678711,-0.8910689353942871,-1.752535104751587
1714858337808713700,2.149713623046875,-0.08237743377685547,-0.7633156776428223,-1.7592425346374512
1714858337818663200,2.1596630859375,-1.1868176460266113,-0.7988433837890625,-1.4237339496612549
1714858337828612600,2.169612548828125,-1.6340675354003906,-0.9752202033996582,-1.143593192100525
1714858337838562300,2.179562255859375,-1.2264161109924316,-1.0127840042114258,-1.0232090950012207
1714858337848511700,2.18951171875,-1.0228047370910645,-0.8314080238342285,-0.8556817173957825
1714858337858461200,2.199461181640625,-0.6110248565673828,-0.8483715057373047,-1.19014573097229
1714858337868410600,2.20941064453125,0.540003776550293,-1.257493495941162,-2.606604814529419
1714858337878360000,2.219360107421875,0.829167366027832,-1.2658185958862305,-3.2016351222991943
1714858337888309500,2.2293095703125,-0.3147611618041992,-1.6805434226989746,-3.3369789123535156
1714858337898259000,2.239259033203125,-1.687406063079834,-1.7358198165893555,-2.2445125579833984
1714858337908208600,2.249208740234375,-2.856518268585205,-1.2526192665100098,-0.8916928172111511
1714858337918158000,2.259157958984375,-2.8259634971618652,-1.4448585510253906,-0.562253475189209
1714858337928107500,2.269107421875,-1.3910231590270996,-1.8498988151550293,-1.245924711227417
1714858337938057000,2.279056884765625,0.046063899993896484,-2.189260959625244,-1.8250019550323486
1714858337948006400,2.28900634765625,0.8820219039916992,-2.319518566131592,-1.7348995208740234
1714858337957955800,2.298955810546875,1.2313404083251953,-1.8017983436584473,-1.3079471588134766
1714858337967905300,2.3089052734375,1.0394001007080078,-1.6650590896606445,-1.636481761932373
1714858337977855000,2.31885498046875,0.6154685020446777,-1.8041930198669434,-1.9120064973831177
1714858337987804400,2.328804443359375,0.08196544647216797,-1.5899205207824707,-1.9077330827713013
1714858337997753900,2.33875390625,-0.9014506340026855,-1.4009485244750977,-1.7943074703216553
1714858338007703300,2.348703369140625,-2.304518699645996,-1.4013457298278809,-1.555538535118103
1714858338017652700,2.35865283203125,-3.5319385528564453,-1.3336405754089355,-1.1043086051940918
1714858338027602200,2.368602294921875,-3.9491794109344482,-1.4184794425964355,-1.6523418426513672
1714858338037551900,2.3785517578125,-3.5579051971435547,-1.438493251800537,-1.9643354415893555
1714858338047501300,2.388501220703125,-3.1323328018188477,-1.248441219329834,-1.3409762382507324
1714858338057450800,2.39845068359375,-2.8953452110290527,-1.2175073623657227,-0.5281662344932556
1714858338067400200,2.408400146484375,-2.6339211463928223,-1.3468022346496582,0.012455962598323822
1714858338077349600,2.418349609375,-1.8285269737243652,-1.4062151908874512,0.011706672608852386
1714858338087299000,2.428299072265625,-0.8030357360839844,-1.346700668334961,-0.13345307111740112
1714858338097248500,2.43824853515625,0.00032711029052734375,-1.31526517868042,-0.6049939393997192
1714858338107198200,2.4481982421875,0.6584262847900391,-1.1175165176391602,-1.2433547973632812
1714858338117147600,2.458147705078125,1.2471461296081543,-0.8406848907470703,-1.920868158340454
1714858338127097000,2.46809716796875,1.5312786102294922,-0.6327042579650879,-1.6695663928985596
1714858338137046500,2.478046630859375,1.3068790435791016,-0.8801002502441406,-0.9780954122543335
1714858338146996000,2.487995849609375,0.43740177154541016,-1.3552846908569336,-0.8216452598571777
1714858338156945400,2.4979453125,-0.8683981895446777,-1.3210034370422363,-0.29288551211357117
1714858338166895000,2.50789501953125,-1.7148070335388184,-0.8737163543701172,0.4998255968093872
1714858338176844500,2.517844482421875,-1.524460792541504,-0.568974494934082,0.4471663236618042
1714858338186794000,2.5277939453125,-1.272822380065918,-0.44517946243286133,-0.24936333298683167
1714858338196743400,2.537743408203125,-1.2980632781982422,-0.11878395080566406,-0.6187611818313599
1714858338206692900,2.54769287109375,-1.2833476066589355,-0.09070634841918945,-0.7308586239814758
1714858338216642300,2.557642333984375,-0.49080944061279297,-0.16832971572875977,-0.8699198961257935
1714858338226591700,2.567591796875,0.7056140899658203,-0.07427787780761719,-1.1753804683685303
1714858338236541400,2.57754150390625,1.5903234481811523,0.18437910079956055,-1.1908237934112549
1714858338246491000,2.587490966796875,1.704437255859375,0.5724763870239258,-0.7722877264022827
1714858338256440300,2.5974404296875,1.5647459030151367,0.6127920150756836,-0.32836586236953735
1714858338266389800,2.6073896484375,1.3699922561645508,0.7659311294555664,0.2553800940513611
1714858338276339200,2.617339111328125,1.5196590423583984,1.1827893257141113,0.8461678624153137
1714858338286288600,2.62728857421875,1.6552467346191406,1.553757667541504,1.0985243320465088
1714858338296238300,2.63723828125,1.3094844818115234,1.755721092224121,0.780297040939331
1714858338306187800,2.647187744140625,0.09946441650390625,2.037776470184326,0.2567591667175293
1714858338316137200,2.65713720703125,-1.3985567092895508,2.4293246269226074,-0.024133265018463135
1714858338326086700,2.667086669921875,-0.31882476806640625,2.745903491973877,-0.40512794256210327
1714858338336036000,2.6770361328125,0.4920969009399414,2.552401065826416,-1.342807650566101
1714858338345985500,2.686985595703125,0.748692512512207,3.4591073989868164,-0.23332518339157104
1714858338355935000,2.69693505859375,1.1127471923828125,4.132308483123779,0.7545021772384644
1714858338365884700,2.706884765625,1.8739709854125977,3.999940872192383,1.2666186094284058
1714858338375834000,2.716834228515625,3.199948310852051,3.20501708984375,1.0710046291351318
1714858338385783600,2.726783447265625,4.083798408508301,3.2036399841308594,1.5655293464660645
1714858338395733000,2.73673291015625,4.005988121032715,3.321075439453125,1.7723455429077148
1714858338405682400,2.746682373046875,3.2392311096191406,3.144030809402466,1.3643229007720947
1714858338415632000,2.7566318359375,2.6602258682250977,3.022413730621338,0.7449953556060791
1714858338425581600,2.76658154296875,2.386509895324707,3.0125985145568848,0.07894277572631836
1714858338435531000,2.776531005859375,2.11226749420166,2.976435661315918,-0.6263473033905029
1714858338445480400,2.78648046875,1.3410873413085938,2.7129673957824707,-1.2232029438018799
1714858338455430000,2.796429931640625,0.9124660491943359,1.7772202491760254,-2.1609909534454346
1714858338465379300,2.80637939453125,0.7486019134521484,1.933840274810791,-1.1542377471923828
1714858338475328800,2.816328857421875,-0.11266899108886719,2.3008809089660645,0.18469677865505219
1714858338485278200,2.8262783203125,-1.48506498336792,1.9601101875305176,0.849175214767456
1714858338495228000,2.836227783203125,-2.180758476257324,1.5439434051513672,1.0171394348144531
1714858338505177300,2.84617724609375,-1.9041318893432617,1.173233985900879,0.6588160991668701
1714858338515126800,2.856126708984375,-0.641697883605957,0.7074069976806641,0.2502424120903015
1714858338525076200,2.866076171875,1.0195302963256836,0.3897252082824707,0.34699565172195435
1714858338535025700,2.876025634765625,1.6924247741699219,0.20728445053100586,0.8498135805130005
1714858338544975000,2.88597509765625,1.434682846069336,-0.0666360855102539,1.188922643661499
1714858338554924800,2.8959248046875,0.8118810653686523,-0.40087223052978516,1.342147707939148
1714858338564874200,2.905874267578125,0.3580760955810547,-0.5626497268676758,0.9741973876953125
1714858338574823700,2.91582373046875,0.22903823852539062,-0.5504150390625,0.3336946964263916
1714858338584773400,2.9257734375,0.10934638977050781,-0.3512415885925293,-0.24462419748306274
1714858338594722800,2.935722900390625,-0.15104198455810547,-0.3435940742492676,-0.46201640367507935
1714858338604672500,2.945672607421875,-0.4632148742675781,-0.5760593414306641,-0.38271480798721313
1714858338614622000,2.9556220703125,-0.968968391418457,-0.733731746673584,-0.14787828922271729
1714858338624571400,2.9655712890625,-1.5241775512695312,-0.6969671249389648,-0.006585478782653809
1714858338634521000,2.97552099609375,-1.9599404335021973,-0.6444234848022461,0.048769474029541016
1714858338644470500,2.985470458984375,-2.283463954925537,-0.5403447151184082,-0.014209628105163574
1714858338654420000,2.995419921875,-2.358203411102295,-0.31708478927612305,-0.2043488621711731
1714858338664369700,3.00536962890625,-1.7279748916625977,-0.13138055801391602,-0.6332487463951111
1714858338674319000,3.015319091796875,-0.8940343856811523,-0.22078466415405273,-0.7391825914382935
1714858338684268500,3.0252685546875,-0.1644744873046875,-0.3555450439453125,-0.28386247158050537
1714858338694218200,3.03521826171875,0.13051509857177734,-0.3393392562866211,-0.0778275728225708
1714858338704167700,3.045167724609375,0.22737407684326172,-0.18900394439697266,0.07962971925735474
1714858338714117000,3.0551171875,0.30242156982421875,-0.13807058334350586,0.3044961094856262
1714858338724066800,3.06506689453125,0.5071802139282227,-0.11377096176147461,0.40905022621154785
1714858338734016300,3.075016357421875,0.7700729370117188,0.016426563262939453,0.4297880530357361
1714858338743965700,3.084965576171875,0.9539632797241211,0.3548250198364258,0.5777137875556946
1714858338753915400,3.094915283203125,1.0462493896484375,0.6896352767944336,0.9406824707984924
1714858338763864800,3.10486474609375,0.7858896255493164,0.8447909355163574,1.1540557146072388
1714858338773814500,3.114814453125,0.35926151275634766,0.9378399848937988,0.5736292004585266
1714858338783764000,3.124763916015625,-0.18915748596191406,0.8674464225769043,-0.6847454309463501
1714858338793713400,3.13471337890625,-0.6241436004638672,0.8858494758605957,-1.6928049325942993
1714858338803663000,3.1446630859375,-0.8044519424438477,1.3241252899169922,-1.9525058269500732
1714858338813612500,3.154612548828125,-0.735198974609375,1.6130790710449219,-1.5473335981369019
1714858338823562000,3.16456201171875,-0.5257272720336914,1.447230339050293,-0.863231897354126
1714858338833511700,3.17451171875,-0.3848381042480469,1.1746273040771484,-0.17344534397125244
1714858338843461000,3.184461181640625,-0.6265945434570312,1.0478267669677734,0.47183549404144287
1714858338853410600,3.19441064453125,-0.8157434463500977,0.9770064353942871,0.7090097665786743
1714858338863360300,3.2043603515625,-0.780247688293457,0.9764876365661621,0.33282482624053955
1714858338873309700,3.214309814453125,-0.3713045120239258,0.899259090423584,-0.3832862377166748
1714858338883259100,3.224259033203125,0.4457530975341797,0.5785722732543945,-1.283772587776184
1714858338893208600,3.23420849609375,0.8847875595092773,0.3474750518798828,-1.5985649824142456
1714858338903158000,3.244157958984375,0.6514883041381836,0.3421974182128906,-1.095207929611206
1714858338913107500,3.254107421875,-0.26540565490722656,0.29767513275146484,-0.3961832523345947
1714858338923057000,3.264056884765625,-1.010758399963379,0.023758411407470703,-0.5153852701187134
1714858338933006600,3.274006591796875,-1.1928181648254395,-0.23629379272460938,-1.0077061653137207
1714858338942956000,3.2839560546875,-1.32072114944458,-0.4538002014160156,-1.0746989250183105
1714858338952905500,3.293905517578125,-1.5575242042541504,-0.6368298530578613,-0.764532208442688
1714858338962855000,3.30385498046875,-1.6929082870483398,-0.7063436508178711,-0.4329155683517456
1714858338972804400,3.313804443359375,-1.3385872840881348,-0.9728374481201172,-0.30635130405426025
1714858338982753800,3.32375390625,-0.5583391189575195,-1.2405955791473389,-0.15911197662353516
1714858338992703500,3.333703369140625,0.10689258575439453,-1.1309847831726074,0.1569870114326477
1714858339002653000,3.34365283203125,0.5664968490600586,-0.9207553863525391,0.2700657248497009
1714858339012602400,3.353602294921875,1.1102304458618164,-0.918694019317627,-0.12918299436569214
1714858339022551800,3.3635517578125,1.9687814712524414,-1.050933837890625,-1.3782663345336914
1714858339032501200,3.373501220703125,2.047853469848633,-0.9396224021911621,-1.9292861223220825
1714858339042450700,3.38345068359375,1.7346506118774414,-0.9095993041992188,-1.547661304473877
1714858339052400000,3.393400146484375,0.8829145431518555,-0.9366655349731445,-0.7611051797866821
1714858339062349800,3.403349853515625,-0.051749229431152344,-0.9402780532836914,-0.20111584663391113
1714858339072299300,3.41329931640625,-0.6141672134399414,-0.8617172241210938,0.02936917543411255
1714858339082248700,3.423248779296875,-0.5677728652954102,-0.7279047966003418,-0.009764909744262695
1714858339092198100,3.4331982421875,-0.47664451599121094,-0.4791984558105469,-0.0803370475769043
1714858339102147600,3.443147705078125,-0.6944952011108398,-0.38324975967407227,-0.23717689514160156
1714858339112097000,3.453096923828125,-1.0881013870239258,-0.35123443603515625,-0.3936014175415039
1714858339122046700,3.463046630859375,-1.1619949340820312,-0.2561807632446289,-0.5169082283973694
1714858339131996200,3.47299609375,-0.7442073822021484,-0.26218223571777344,-0.8257777690887451
1714858339141945600,3.482945556640625,-0.22096633911132812,-0.3396162986755371,-0.9428804516792297
1714858339151895000,3.49289501953125,0.21413707733154297,-0.3301820755004883,-0.9114404916763306
1714858339161844500,3.502844482421875,0.5054512023925781,-0.2890472412109375,-0.8176745176315308
1714858339171794000,3.5127939453125,0.7075223922729492,-0.29042625427246094,-0.7593410015106201
1714858339181743400,3.522743408203125,0.8647871017456055,-0.33591175079345703,-0.6275428533554077
1714858339191693000,3.532693115234375,0.9834566116333008,-0.40824222564697266,-0.5094186067581177
1714858339201642500,3.542642578125,0.8302173614501953,-0.4459066390991211,-0.4733203053474426
1714858339211592000,3.552592041015625,0.538508415222168,-0.3946542739868164,-0.3854556679725647
1714858339221541400,3.562541259765625,0.15013980865478516,-0.328671932220459,-0.2920125126838684
1714858339231490800,3.57249072265625,-0.2746000289916992,-0.27327919006347656,-0.20082151889801025
1714858339241440300,3.582440185546875,-0.7856321334838867,-0.17699909210205078,-0.00016635656356811523
1714858339251390000,3.592389892578125,-1.0889043807983398,-0.16039371490478516,0.20275121927261353
1714858339261339400,3.60233935546875,-0.8418264389038086,-0.06478404998779297,0.16318070888519287
1714858339271288800,3.612288818359375,-0.5078744888305664,0.05899810791015625,-0.03208470344543457
1714858339281238300,3.62223828125,-0.22415447235107422,0.07440185546875,-0.1480565071105957
1714858339291187700,3.632187744140625,-0.18508148193359375,0.07082414627075195,-0.08570325374603271
1714858339301137200,3.64213720703125,-0.20346546173095703,0.024499893188476562,-0.1136091947555542
1714858339311086600,3.652086669921875,-0.13075542449951172,0.006931781768798828,-0.14710336923599243
1714858339321036300,3.662036376953125,-0.019205093383789062,0.012302398681640625,-0.21000921726226807
1714858339330985700,3.67198583984375,0.0742502212524414,0.020494461059570312,-0.23600637912750244
1714858339340935200,3.68193505859375,0.0684347152709961,-0.00667572021484375,-0.14919215440750122
1714858339350884600,3.691884521484375,-0.07986736297607422,0.01297760009765625,0.01660919189453125
1714858339360834000,3.701833984375,-0.21392250061035156,-0.023750782012939453,0.10154253244400024
1714858339370783500,3.711783447265625,-0.11464595794677734,-0.10651111602783203,0.2513020634651184
1714858339380733200,3.721733154296875,0.0841054916381836,-0.15020036697387695,0.3885243535041809
1714858339390682600,3.7316826171875,0.15310001373291016,-0.17924928665161133,0.36530938744544983
1714858339400632000,3.741632080078125,0.11645221710205078,-0.20309209823608398,0.2771490514278412
1714858339410581500,3.75158154296875,0.10309982299804688,-0.17827463150024414,0.17640471458435059
1714858339420531000,3.761531005859375,0.11316299438476562,-0.13370847702026367,0.20307299494743347
1714858339430480400,3.77148046875,0.10393810272216797,-0.11755800247192383,0.22035574913024902
1714858339440429800,3.781429931640625,0.07545757293701172,-0.13444995880126953,0.19994008541107178
1714858339450379500,3.791379638671875,0.14261627197265625,-0.14165878295898438,0.2094704508781433
1714858339460329000,3.801328857421875,0.20987319946289062,-0.15395832061767578,0.1963251829147339
1714858339470278400,3.8112783203125,0.21974658966064453,-0.12339544296264648,0.1594296395778656
1714858339480227800,3.821227783203125,0.3253898620605469,-0.11725282669067383,0.12289327383041382
1714858339490177300,3.83117724609375,0.3456907272338867,-0.10320091247558594,0.08654966950416565
1714858339500126700,3.841126708984375,0.35742759704589844,-0.14357233047485352,0.0555247962474823
1714858339510076400,3.851076416015625,0.3899116516113281,-0.13898420333862305,0.0834619402885437
1714858339520025900,3.86102587890625,0.32381629943847656,-0.1373887062072754,0.09531795978546143
1714858339529975300,3.870975341796875,0.09675216674804688,-0.15207433700561523,0.08630579710006714
1714858339539924700,3.8809248046875,-0.10575294494628906,-0.14757394790649414,0.0648106038570404
1714858339549874200,3.890874267578125,-0.2034454345703125,-0.0889744758605957,0.02544492483139038
1714858339559823600,3.90082373046875,-0.3307037353515625,-0.037517547607421875,-0.009256958961486816
1714858339569773000,3.91077294921875,-0.37265777587890625,-0.031188488006591797,-0.06760317087173462
1714858339579722800,3.92072265625,-0.32580089569091797,-0.013129711151123047,-0.14912110567092896
1714858339589672200,3.930672119140625,-0.21478939056396484,-0.045618534088134766,-0.297588586807251
1714858339599621600,3.94062158203125,-0.02116870880126953,-0.020899295806884766,-0.48937952518463135
1714858339609571000,3.950571044921875,0.07533931732177734,0.025916576385498047,-0.46121710538864136
1714858339619520500,3.9605205078125,0.024827957153320312,0.014081001281738281,-0.2718547582626343
1714858339629470000,3.970469970703125,-0.03388500213623047,-0.002875804901123047,-0.03799998760223389
1714858339639419600,3.980419677734375,-0.13378143310546875,-0.0007791519165039062,0.1712627112865448
1714858339649369000,3.990369140625,-0.16608428955078125,0.02047252655029297,0.2579156756401062
1714858339659318500,4.000318603515625,-0.15079212188720703,0.032330989837646484,0.19073516130447388
1714858339669268000,4.01026806640625,-0.16890811920166016,0.04921102523803711,0.06018015742301941
1714858339679217400,4.020217529296875,-0.21071624755859375,0.06192779541015625,0.007040619850158691
1714858339689166800,4.030166748046875,-0.2526102066040039,0.07578372955322266,-0.041460275650024414
1714858339699116300,4.0401162109375,-0.27130985260009766,0.07235956192016602,-0.1377713680267334
1714858339709066000,4.05006591796875,-0.18719863891601562,0.07072734832763672,-0.16471320390701294
1714858339719015400,4.060015380859375,-0.08160114288330078,0.055924415588378906,-0.062396079301834106
1714858339728964900,4.06996484375,0.017559051513671875,-0.0011186599731445312,0.16916424036026
1714858339738914300,4.079914306640625,0.08737468719482422,-0.03918933868408203,0.4599184989929199
1714858339748864000,4.089864013671875,0.12852954864501953,-0.03997039794921875,0.6034744381904602
1714858339758813400,4.0998134765625,0.2027587890625,0.023997783660888672,0.5734879374504089
1714858339768763000,4.109762939453125,0.2955331802368164,0.057036399841308594,0.44680482149124146
1714858339778712600,4.119712646484375,0.23727035522460938,0.021462440490722656,0.3042987287044525
1714858339788662000,4.129662109375,0.14285755157470703,-0.0003771781921386719,0.21650278568267822
1714858339798611500,4.139611572265625,0.06448650360107422,0.005866050720214844,0.13140177726745605
1714858339808561200,4.14956103515625,0.08162498474121094,0.03552532196044922,-0.12138298153877258
1714858339818510600,4.159510498046875,0.14097881317138672,0.05016660690307617,-0.25879305601119995
1714858339828460000,4.1694599609375,0.1099386215209961,0.021790027618408203,-0.16158685088157654
1714858339838409700,4.17940966796875,0.04144096374511719,-0.010395050048828125,0.05947214365005493
1714858339848359200,4.189359130859375,0.04426860809326172,-0.022301673889160156,0.3010827302932739
1714858339858308900,4.199308837890625,0.0986328125,-0.024000167846679688,0.31473684310913086
1714858339868258300,4.20925830078125,0.1379833221435547,-0.020874977111816406,0.15996694564819336
1714858339878207700,4.219207763671875,0.181549072265625,-0.008727073669433594,-0.0020431876182556152
1714858339888157400,4.229157470703125,0.21539878845214844,0.025825977325439453,-0.0780024528503418
1714858339898107000,4.23910693359375,0.15029335021972656,0.030517578125,-0.045571714639663696
1714858339908056300,4.249056396484375,0.10545730590820312,0.015666961669921875,0.07146221399307251
1714858339918006000,4.259006103515625,0.11359596252441406,0.01459503173828125,0.09493792057037354
1714858339927955500,4.26895556640625,0.10805034637451172,0.01734781265258789,0.007191777229309082
1714858339937905000,4.27890478515625,0.07959747314453125,0.019114017486572266,-0.08752655982971191
1714858339947854600,4.2888544921875,0.01897144317626953,0.006132602691650391,-0.14776989817619324
1714858339957804000,4.298803955078125,-0.11608123779296875,-0.011174678802490234,-0.16026389598846436
1714858339967753500,4.30875341796875,-0.19771862030029297,-0.01757526397705078,-0.11605784296989441
1714858339977703200,4.318703125,-0.20356464385986328,0.03902482986450195,-0.11539146304130554
1714858339987652600,4.328652587890625,-0.1205291748046875,0.07233190536499023,-0.1816536784172058
1714858339997602300,4.338602294921875,-0.03451251983642578,0.09617090225219727,-0.21067234873771667
1714858340007551700,4.3485517578125,0.0170135498046875,0.09140634536743164,-0.19826027750968933
1714858340017501200,4.358501220703125,0.06312084197998047,0.08171606063842773,-0.12028306722640991
1714858340027451000,4.368450927734375,0.06173419952392578,0.0621337890625,-0.057252585887908936
1714858340037400300,4.378400390625,0.04203510284423828,0.051482200622558594,-0.03632330894470215
1714858340047349800,4.388349853515625,-0.009929656982421875,0.04988813400268555,-0.051853686571121216
1714858340057299200,4.39829931640625,-0.06557655334472656,0.04812765121459961,-0.11784619092941284
1714858340067248600,4.40824853515625,-0.1441364288330078,0.07526779174804688,-0.16340947151184082
1714858340077198300,4.4181982421875,-0.21743297576904297,0.06092500686645508,-0.18078869581222534
1714858340087147800,4.428147705078125,-0.16810131072998047,0.039226531982421875,-0.161217600107193
1714858340097097200,4.43809716796875,-0.06375312805175781,0.03782844543457031,-0.11517852544784546
1714858340107046700,4.448046630859375,0.06704235076904297,0.04116249084472656,-0.08995556831359863
1714858340116996000,4.45799609375,0.1679401397705078,0.03870868682861328,-0.07941484451293945
1714858340126945500,4.467945556640625,0.2493915557861328,0.0013651847839355469,-0.06853616237640381
1714858340136895000,4.47789501953125,0.20819664001464844,-0.027999401092529297,-0.01932615041732788
1714858340146844700,4.4878447265625,0.13095760345458984,-0.025575637817382812,0.034862786531448364
1714858340156794000,4.497794189453125,0.017770767211914062,-0.009763717651367188,0.10342374444007874
1714858340166743600,4.50774365234375,-0.12665843963623047,0.02035045623779297,0.0871477723121643
1714858340176693000,4.51769287109375,-0.1800994873046875,0.03285694122314453,0.024544477462768555
1714858340186642400,4.527642333984375,-0.09212207794189453,0.06069612503051758,-0.055565595626831055
1714858340196591900,4.537591796875,0.022391319274902344,0.069671630859375,-0.14414942264556885
1714858340206541600,4.54754150390625,0.0502166748046875,0.07351255416870117,-0.27187031507492065
1714858340216491000,4.557490966796875,0.0586700439453125,0.053429603576660156,-0.3026229739189148
1714858340226440400,4.5674404296875,-0.018027305603027344,0.033883094787597656,-0.12344896793365479
1714858340236390000,4.577389892578125,-0.08428192138671875,0.029274940490722656,0.0810452401638031
1714858340246339300,4.58733935546875,-0.09777355194091797,0.011165618896484375,0.2329028844833374
1714858340256288800,4.597288818359375,-0.054443359375,0.017117977142333984,0.2586212456226349
1714858340266238200,4.60723828125,0.021309852600097656,0.04172182083129883,0.19688615202903748
1714858340276188000,4.61718798828125,0.0681161880493164,0.041398048400878906,0.08525532484054565
1714858340286137300,4.627137451171875,0.025148391723632812,0.02611684799194336,-0.04292500019073486
1714858340296086800,4.637086669921875,-0.07843875885009766,0.0065135955810546875,-0.1463894248008728
1714858340306036200,4.6470361328125,-0.09126949310302734,0.020873069763183594,-0.09875410795211792
1714858340315985700,4.656985595703125,-0.09500598907470703,0.021856307983398438,-0.00508040189743042
1714858340325935000,4.66693505859375,-0.05674171447753906,0.00952768325805664,0.025814831256866455
1714858340335884800,4.676884765625,-0.0004968643188476562,0.0023937225341796875,0.031530022621154785
1714858340345834200,4.686834228515625,0.03579235076904297,0.004988670349121094,-0.001872241497039795
1714858340355783700,4.69678369140625,0.08070087432861328,0.012542247772216797,-0.025949537754058838
1714858340365733000,4.706733154296875,0.1533374786376953,0.0006566047668457031,-0.021846652030944824
1714858340375682600,4.7166826171875,0.21126461029052734,-0.021570682525634766,0.03925353288650513
1714858340385632000,4.726632080078125,0.1985788345336914,-0.026234149932861328,0.09181317687034607
1714858340395581400,4.73658154296875,0.11150550842285156,-0.03198719024658203,0.07019799947738647
1714858340405531100,4.74653125,0.026140213012695312,-0.023876667022705078,-0.02530848979949951
1714858340415480600,4.75648046875,-0.015582084655761719,-0.01563739776611328,-0.14781105518341064
1714858340425430000,4.766429931640625,-0.09970474243164062,-0.0064697265625,-0.2237427830696106
1714858340435379500,4.77637939453125,-0.160125732421875,0.009145259857177734,-0.1893255114555359
1714858340445329000,4.786328857421875,-0.08394718170166016,0.03078937530517578,-0.03973919153213501
1714858340455278300,4.7962783203125,0.023590087890625,0.04335975646972656,0.07026845216751099
1714858340465228000,4.80622802734375,0.09674263000488281,0.03636646270751953,-0.008431077003479004
1714858340475177500,4.816177490234375,0.14109516143798828,0.032952308654785156,-0.1373913288116455
1714858340485127000,4.826126953125,0.11030006408691406,0.03255748748779297,-0.13219833374023438
1714858340495076400,4.836076416015625,0.024056434631347656,0.012449264526367188,-0.03167068958282471
1714858340505025800,4.84602587890625,0.005406379699707031,-0.007582187652587891,0.06407713890075684
1714858340514975200,4.855975341796875,0.029639244079589844,-0.013382911682128906,0.09350284934043884
1714858340524924700,4.865924560546875,0.030196189880371094,-0.01950979232788086,0.0478702187538147
1714858340534874400,4.875874267578125,0.002658843994140625,-0.04464435577392578,-0.020214736461639404
1714858340544823800,4.88582373046875,-0.03855705261230469,-0.05987358093261719,-0.02088010311126709
1714858340554773200,4.895773193359375,-0.0981893539428711,-0.0037813186645507812,-0.02215743064880371
1714858340564722700,4.90572265625,-0.12459659576416016,0.0006823539733886719,-0.04931145906448364
1714858340574672100,4.915672119140625,-0.10433197021484375,-0.0217742919921875,0.006960630416870117
1714858340584621600,4.92562158203125,-0.0757436752319336,-0.00012540817260742188,0.056901514530181885
1714858340594571300,4.9355712890625,0.03676128387451172,-0.015801429748535156,0.05903828144073486
1714858340604520700,4.945520751953125,0.14762020111083984,-0.022219181060791016,0.0471271276473999
1714858340614470100,4.95547021484375,0.18199729919433594,-0.006281852722167969,0.054583966732025146
1714858340624419600,4.965419677734375,0.14126205444335938,-0.015530109405517578,0.0819351077079773
1714858340634369000,4.975369140625,0.02161884307861328,-0.02536296844482422,0.04874950647354126
1714858340644318500,4.985318359375,-0.05831623077392578,-0.020929813385009766,0.0025447607040405273
1714858340654268000,4.995267822265625,-0.06182670593261719,0.007412433624267578,-0.010176241397857666
1714858340664217600,5.005217529296875,-0.0654754638671875,0.016805171966552734,0.024252593517303467
1714858340674167000,5.0151669921875,-0.01746082305908203,0.0028676986694335938,0.03931760787963867
1714858340684116500,5.025116455078125,0.0863943099975586,-0.0016961097717285156,0.0257415771484375
1714858340694066000,5.03506591796875,0.10901641845703125,-0.02613210678100586,0.06824320554733276
1714858340704015400,5.045015380859375,0.037390708923339844,-0.041277408599853516,0.05858224630355835
1714858340713964800,5.05496484375,-0.019118309020996094,-0.02751922607421875,0.011516809463500977
1714858340723914200,5.064914306640625,0.0006341934204101562,0.00012922286987304688,-0.002134859561920166
1714858340733864000,5.074864013671875,0.001132965087890625,-0.005537509918212891,0.007425904273986816
1714858340743813400,5.0848134765625,0.006203651428222656,-0.01561880111694336,0.016456961631774902
1714858340753762800,5.0947626953125,0.030078887939453125,-0.025602340698242188,0.03504586219787598
1714858340763712300,5.104712158203125,0.020780563354492188,-0.030968666076660156,0.0022906064987182617
1714858340773661700,5.11466162109375,-0.035419464111328125,-0.017405033111572266,-0.029400348663330078
1714858340783611100,5.124611083984375,-0.07211875915527344,0.01993274688720703,-0.051619648933410645
1714858340793560800,5.134560791015625,-0.07084369659423828,0.05240297317504883,-0.06503856182098389
1714858340803510300,5.14451025390625,-0.07929611206054688,0.05182933807373047,-0.06486290693283081
1714858340813459700,5.154459716796875,-0.036009788513183594,0.06576013565063477,-0.08357369899749756
1714858340823409200,5.1644091796875,0.03491497039794922,0.0652155876159668,-0.0918152928352356
1714858340833358600,5.174358642578125,0.07686710357666016,0.07331085205078125,-0.11801886558532715
1714858340843308000,5.18430810546875,0.0761861801147461,0.06635284423828125,-0.157507061958313
1714858340853257500,5.194257568359375,0.02862834930419922,0.05909919738769531,-0.13071340322494507
1714858340863207200,5.204207275390625,-0.05606269836425781,0.028786659240722656,-0.07244306802749634
1714858340873156600,5.214156494140625,-0.055191993713378906,0.03769731521606445,-0.034767746925354004
1714858340883106000,5.22410595703125,-0.05015754699707031,0.04733419418334961,-0.022328615188598633
1714858340893055500,5.234055419921875,0.001621246337890625,0.05250692367553711,-0.010787010192871094
1714858340903005000,5.2440048828125,0.057476043701171875,0.047738075256347656,-0.018306314945220947
1714858340912954400,5.253954345703125,0.06588077545166016,0.018561840057373047,-0.09525388479232788
1714858340922904000,5.263904052734375,0.05113792419433594,0.031351566314697266,-0.16995769739151
1714858340932853500,5.273853515625,0.013468742370605469,0.03850889205932617,-0.14931493997573853
1714858340942803000,5.283802978515625,-0.023332595825195312,0.05926704406738281,-0.09093904495239258
1714858340952752400,5.29375244140625,-0.0831136703491211,0.0845632553100586,-0.08468043804168701
1714858340962701800,5.303701904296875,-0.15169334411621094,0.0677800178527832,-0.10203689336776733
1714858340972651300,5.3136513671875,-0.1302175521850586,0.05700397491455078,-0.08162927627563477
1714858340982600700,5.3236005859375,-0.07192134857177734,0.047350406646728516,-0.04258459806442261
1714858340992550400,5.33355029296875,-0.014775276184082031,0.033429622650146484,-0.08470535278320312
1714858341002499800,5.343499755859375,0.07440376281738281,0.014907360076904297,-0.17383259534835815
1714858341012449300,5.35344921875,0.14366626739501953,0.0099334716796875,-0.1777225136756897
1714858341022398700,5.363398681640625,0.1606435775756836,0.02251577377319336,-0.12591034173965454
1714858341032348200,5.37334814453125,0.11680889129638672,0.03837251663208008,-0.0367814302444458
1714858341042297600,5.383297607421875,0.03655052185058594,0.029609203338623047,-0.018489360809326172
1714858341052247300,5.393247314453125,-0.04224586486816406,0.016196250915527344,-0.06054157018661499
1714858341062196700,5.40319677734375,-0.12465476989746094,0.00814199447631836,-0.10648351907730103
1714858341072146200,5.413146240234375,-0.17335033416748047,0.0012841224670410156,-0.12428337335586548
1714858341082095600,5.423095703125,-0.16560840606689453,-0.018036365509033203,-0.06726747751235962
1714858341092045000,5.433045166015625,-0.10694026947021484,-0.0357356071472168,-0.0025396347045898438
1714858341101994500,5.442994384765625,-0.02148914337158203,-0.06640338897705078,0.05589628219604492
1714858341111944000,5.45294384765625,0.09075927734375,-0.08239507675170898,0.06610482931137085
1714858341121893600,5.4628935546875,0.14966106414794922,-0.08933115005493164,0.0570414662361145
1714858341131843000,5.472843017578125,0.13268756866455078,-0.07825040817260742,0.0708303451538086
1714858341141792500,5.48279248046875,0.08813762664794922,-0.0727853775024414,0.09391197562217712
1714858341151742000,5.492741943359375,0.058605194091796875,-0.0582432746887207,0.10744020342826843
1714858341161691400,5.50269140625,0.03439807891845703,-0.044098854064941406,0.10253164172172546
1714858341171640800,5.512640869140625,0.029468536376953125,-0.03489112854003906,0.0795760452747345
1714858341181590500,5.522590576171875,0.0199737548828125,-0.04947233200073242,0.06660747528076172
1714858341191540000,5.5325400390625,-0.003345489501953125,-0.0593867301940918,0.08196309208869934
1714858341201489400,5.542489501953125,-0.016831398010253906,-0.0645136833190918,0.11086326837539673
1714858341211438800,5.55243896484375,0.0028362274169921875,-0.05530548095703125,0.13510259985923767
1714858341221388300,5.56238818359375,0.008093833923339844,-0.04631519317626953,0.13554957509040833
1714858341231337700,5.572337646484375,-0.033843994140625,-0.04685163497924805,0.13125351071357727
1714858341241287200,5.582287109375,-0.004525184631347656,-0.023686885833740234,0.1177341639995575
1714858341251236900,5.59223681640625,0.015043258666992188,0.008277416229248047,0.0531865656375885
1714858341261186300,5.602186279296875,-0.02198028564453125,0.02521991729736328,-0.023656010627746582
1714858341271135700,5.6121357421875,-0.07712745666503906,0.041769981384277344,-0.0844922661781311
1714858341281085200,5.622085205078125,-0.14574241638183594,0.05386495590209961,-0.1533752679824829
1714858341291034600,5.63203466796875,-0.15258216857910156,0.05741548538208008,-0.19302672147750854
1714858341300984000,5.641984130859375,-0.10792827606201172,0.05687522888183594,-0.167025625705719
1714858341310933800,5.651933837890625,-0.07831478118896484,0.07071638107299805,-0.09975391626358032
1714858341320883200,5.66188330078125,-0.07743644714355469,0.07494831085205078,-0.004816293716430664
1714858341330832600,5.67183251953125,-0.10965442657470703,0.08890628814697266,0.04752582311630249
1714858341340782000,5.681781982421875,-0.08992862701416016,0.1552729606628418,-0.06943035125732422
1714858341350731500,5.6917314453125,-0.05671501159667969,0.1551198959350586,-0.22278600931167603
1714858341360681000,5.701680908203125,-0.06676483154296875,0.07996225357055664,-0.3997718095779419
1714858341370630400,5.71163037109375,-0.08652019500732422,0.06293249130249023,-0.42744022607803345
1714858341380580000,5.721580078125,-0.12052536010742188,0.1408529281616211,-0.34014904499053955
1714858341390529500,5.731529541015625,-0.1829080581665039,0.1999683380126953,-0.29183244705200195
1714858341400479000,5.74147900390625,-0.2547025680541992,0.18021106719970703,-0.31783121824264526
1714858341410428400,5.751428466796875,-0.36868858337402344,0.440671443939209,-0.1252915859222412
1714858341420377900,5.7613779296875,-0.34139537811279297,0.24880409240722656,-0.2281472086906433
1714858341430327300,5.771327392578125,0.13268470764160156,-0.10906982421875,-0.7000398635864258
1714858341440277000,5.781277099609375,0.45537853240966797,-0.037499427795410156,-0.6162612438201904
1714858341450226400,5.791226318359375,0.4363422393798828,0.12677335739135742,-0.2978360652923584
1714858341460176000,5.80117578125,0.2453908920288086,0.16238975524902344,-0.18004661798477173
1714858341470125300,5.811125244140625,0.030432701110839844,0.06847524642944336,-0.1989477276802063
1714858341480074800,5.82107470703125,-0.015600204467773438,0.0834965705871582,-0.29672420024871826
1714858341490024200,5.831024169921875,-0.03708934783935547,0.10728311538696289,-0.34551119804382324
1714858341499973600,5.8409736328125,-0.07226371765136719,0.0550389289855957,-0.38057756423950195
1714858341509923300,5.85092333984375,-0.1022329330444336,0.027215003967285156,-0.27049118280410767
1714858341519872800,5.860872802734375,-0.1508169174194336,0.05679655075073242,-0.14887946844100952
1714858341529822200,5.870822265625,-0.16634273529052734,0.03073596954345703,-0.043359994888305664
1714858341539771600,5.880771728515625,-0.1446847915649414,-0.031189918518066406,0.0035927295684814453
1714858341549721000,5.89072119140625,-0.13800430297851562,-0.06300497055053711,0.044248998165130615
1714858341559670500,5.90067041015625,-0.11319732666015625,-0.07912206649780273,0.10236585140228271
1714858341569620000,5.910619873046875,-0.023301124572753906,-0.08956432342529297,0.1446133852005005
1714858341579569700,5.920569580078125,0.036665916442871094,-0.11854076385498047,0.14197111129760742
1714858341589519000,5.93051904296875,0.0722208023071289,-0.17090892791748047,0.1197172999382019
1714858341599468500,5.940468505859375,0.0037021636962890625,-0.18488168716430664,0.20182135701179504
1714858341609418000,5.95041796875,-0.07805538177490234,-0.11328125,0.31627553701400757
1714858341619367400,5.960367431640625,-0.017554283142089844,-0.07483816146850586,0.271330326795578
1714858341629316900,5.97031689453125,0.0088958740234375,-0.06959772109985352,0.11149096488952637
1714858341639266600,5.9802666015625,0.0255279541015625,-0.0738363265991211,-0.04952937364578247
1714858341649216000,5.990216064453125,0.046624183654785156,-0.06862258911132812,-0.08054935932159424
1714858341659165400,6.00016552734375,0.06730270385742188,-0.006922245025634766,-0.15869897603988647
1714858341669115000,6.010114990234375,0.06426429748535156,-0.022104740142822266,-0.19957470893859863
1714858341679064300,6.020064208984375,0.042514801025390625,0.023993492126464844,-0.13188308477401733
1714858341689013800,6.030013671875,0.06833648681640625,0.11156320571899414,-0.17279386520385742
1714858341698963200,6.039963134765625,0.1271686553955078,0.09807157516479492,-0.296070396900177
1714858341708913000,6.049912841796875,0.22840118408203125,0.1160573959350586,-0.42016708850860596
1714858341718862300,6.0598623046875,0.29189109802246094,0.16376113891601562,-0.41855382919311523
1714858341728811800,6.069811767578125,0.30437564849853516,0.20264387130737305,-0.4105280041694641
1714858341738761200,6.07976123046875,0.29022789001464844,0.20007085800170898,-0.44239938259124756
1714858341748710700,6.089710693359375,0.1650981903076172,0.17082977294921875,-0.5052327513694763
1714858341758660000,6.09966015625,0.010265350341796875,0.20131540298461914,-0.6175585985183716
1714858341768609800,6.10960986328125,-0.11800861358642578,0.25891876220703125,-0.7038664221763611
1714858341778559200,6.119559326171875,-0.17834186553955078,0.292147159576416,-0.9174765944480896
1714858341788508400,6.12950830078125,-0.33727169036865234,0.2078380584716797,-1.043210506439209
1714858341798457900,6.139457763671875,-0.5707645416259766,0.1228017807006836,-0.9287523031234741
1714858341808407300,6.1494072265625,-0.7135114669799805,0.1092982292175293,-0.6323893666267395
1714858341818356700,6.159356689453125,-0.6256790161132812,0.15237998962402344,-0.36995774507522583
1714858341828306200,6.16930615234375,-0.44679927825927734,0.11813592910766602,-0.3166378140449524
1714858341838255600,6.179255615234375,-0.3186836242675781,0.05323028564453125,-0.23770827054977417
1714858341848205000,6.189205078125,-0.2074594497680664,0.028525352478027344,-0.20998775959014893
1714858341858154500,6.199154541015625,0.07144737243652344,-0.014487743377685547,-0.29938697814941406
1714858341868104000,6.20910400390625,0.27133846282958984,-0.07294702529907227,-0.3653881549835205
1714858341878053400,6.219053466796875,0.3420705795288086,-0.19002294540405273,-0.3828476071357727
1714858341888002800,6.2290029296875,0.257354736328125,-0.34096765518188477,-0.2733173370361328
1714858341897952300,6.2389521484375,0.19367313385009766,-0.36417341232299805,-0.00853043794631958
1714858341907901700,6.248901611328125,0.22160625457763672,-0.3181161880493164,0.2345733642578125
1714858341917851100,6.25885107421875,0.17045879364013672,-0.32631397247314453,0.3009418547153473
1714858341927800600,6.268800537109375,0.041449546813964844,-0.3072819709777832,0.37971237301826477
1714858341937750000,6.27875,0.047608375549316406,-0.2892918586730957,0.3915429711341858
1714858341947699500,6.288699462890625,0.2628602981567383,-0.2736053466796875,0.33419814705848694
1714858341957649000,6.29864892578125,0.4446067810058594,-0.23859071731567383,0.16967201232910156
1714858341967598300,6.308598388671875,0.34842491149902344,-0.2464604377746582,-0.11676865816116333
1714858341977547500,6.318547607421875,0.08553314208984375,-0.4216618537902832,-0.2764851450920105
1714858341987497000,6.3284970703125,-0.06977176666259766,-0.5518112182617188,-0.06424576044082642
1714858341997446400,6.3384462890625,-0.18153762817382812,-0.5507793426513672,0.34642159938812256
1714858342007395800,6.348395751953125,-0.2841300964355469,-0.48528003692626953,0.6524078845977783
1714858342017345300,6.35834521484375,-0.20874500274658203,-0.46345949172973633,0.8477954864501953
1714858342027294700,6.368294677734375,-0.03268623352050781,-0.44825124740600586,0.8996105790138245
1714858342037244200,6.378244140625,0.07824516296386719,-0.4452791213989258,0.7878446578979492
1714858342047193600,6.388193603515625,0.11573505401611328,-0.48758506774902344,0.5326411128044128
1714858342057143000,6.39814306640625,0.19893264770507812,-0.5328636169433594,0.2280314564704895
1714858342067092500,6.408092529296875,0.03532123565673828,-0.5393190383911133,-0.009134471416473389
1714858342077042000,6.4180419921875,-0.1504526138305664,-0.6337895393371582,-0.14927446842193604
1714858342086991400,6.427991455078125,0.10842323303222656,-0.6971030235290527,-0.08286303281784058
1714858342096940800,6.43794091796875,0.5100278854370117,-0.6574692726135254,0.03543204069137573
1714858342106890200,6.44789013671875,0.752711296081543,-0.6567511558532715,0.1018419861793518
1714858342116840000,6.45783984375,0.7312030792236328,-0.5963320732116699,0.31840240955352783
1714858342126789400,6.467789306640625,0.6419353485107422,-0.5367565155029297,0.4790920317173004
1714858342136738800,6.47773876953125,0.6875705718994141,-0.5802693367004395,0.5168825387954712
1714858342146688300,6.487688232421875,0.6724405288696289,-0.6405119895935059,0.5943211913108826
1714858342156637700,6.4976376953125,0.6206846237182617,-0.5845870971679688,0.5975279211997986
1714858342166587100,6.507587158203125,0.4433755874633789,-0.5213274955749512,0.5013502836227417
1714858342176536800,6.517536865234375,0.08151054382324219,-0.407595157623291,0.5771909952163696
1714858342186486300,6.527486328125,-0.39150047302246094,-0.24260568618774414,0.8286933302879333
1714858342196435700,6.537435791015625,-0.6079263687133789,0.05601024627685547,0.937273383140564
1714858342206385200,6.54738525390625,-0.46501636505126953,0.30845069885253906,0.5234606266021729
1714858342216334600,6.55733447265625,-0.0675039291381836,0.35769224166870117,-0.07312029600143433
1714858342226284000,6.567283935546875,0.09090328216552734,0.27953100204467773,-0.23206591606140137
1714858342236233500,6.5772333984375,-0.20672225952148438,0.07308197021484375,0.07955962419509888
1714858342246183200,6.58718310546875,-0.99713134765625,0.18935155868530273,1.105370283126831
1714858342256132600,6.597132568359375,-1.355851650238037,0.03401041030883789,1.252638339996338
1714858342266082000,6.60708203125,-1.0871968269348145,-0.3912973403930664,0.6426628828048706
1714858342276031500,6.617031494140625,-1.0492734909057617,-0.5844764709472656,0.2733246684074402
1714858342285981000,6.62698095703125,-1.159095287322998,-0.4912114143371582,0.3364623785018921
1714858342295930400,6.636930419921875,-0.9512739181518555,0.16265010833740234,0.4425959289073944
1714858342305880000,6.646880126953125,-0.2855548858642578,0.7607946395874023,0.47638505697250366
1714858342315829500,6.65682958984375,0.38681602478027344,0.446291446685791,-0.13334155082702637
1714858342325779000,6.666779052734375,0.7430572509765625,0.06568479537963867,-0.422995388507843
1714858342335728400,6.676728271484375,0.8904228210449219,0.2105550765991211,0.0981484055519104
1714858342345677800,6.686677734375,1.1219959259033203,-0.20061111450195312,0.18184202909469604
1714858342355627300,6.696627197265625,0.5427312850952148,-0.24902820587158203,0.629125714302063
1714858342365576700,6.70657666015625,-0.16590309143066406,-0.05194282531738281,1.0635669231414795
1714858342375526400,6.7165263671875,-0.6826934814453125,0.19743585586547852,1.1640650033950806
1714858342385475800,6.726475830078125,-0.9046840667724609,0.40621089935302734,0.7375986576080322
1714858342395425300,6.73642529296875,-1.0631160736083984,0.6886401176452637,0.487648069858551
1714858342405374700,6.746374755859375,-0.613764762878418,0.6610760688781738,0.1153489351272583
1714858342415324200,6.75632421875,-0.22539329528808594,0.5502076148986816,0.034236788749694824
1714858342425273600,6.766273681640625,0.11347103118896484,0.4930610656738281,0.48957401514053345
1714858342435223000,6.77622314453125,0.668487548828125,0.5055246353149414,0.892050564289093
1714858342445172700,6.7861728515625,1.1231117248535156,0.4045906066894531,1.1087079048156738
1714858342455122200,6.7961220703125,0.8964271545410156,0.11966848373413086,0.9394818544387817
1714858342465071600,6.806071533203125,0.4011650085449219,0.019649982452392578,0.7510116696357727
1714858342475021000,6.81602099609375,0.1391305923461914,0.07927179336547852,0.9316540956497192
1714858342484970500,6.825970458984375,0.3713827133178711,0.22368097305297852,0.8362613320350647
1714858342494920000,6.835919921875,0.6492891311645508,0.30620479583740234,0.5942992568016052
1714858342504869600,6.84586962890625,0.19367599487304688,0.2801370620727539,0.3496049642562866
1714858342514819000,6.855819091796875,-0.23657894134521484,0.21741437911987305,0.2894819974899292
1714858342524768500,6.8657685546875,-0.4085359573364258,0.3164229393005371,0.5391712188720703
1714858342534718000,6.875718017578125,-0.4663572311401367,0.17620086669921875,0.7543054819107056
1714858342544667400,6.88566748046875,-0.20397377014160156,0.04415702819824219,0.5959966778755188
1714858342554616800,6.895616943359375,0.0827627182006836,0.054850101470947266,0.2776801586151123
1714858342564566300,6.905566162109375,0.3041706085205078,-0.07302284240722656,0.28930234909057617
1714858342574516000,6.915515869140625,0.6438732147216797,-0.15950775146484375,0.39141809940338135
1714858342584465400,6.92546533203125,0.8209161758422852,-0.24866771697998047,0.7062495946884155
1714858342594414800,6.935414794921875,0.9037103652954102,-0.18786048889160156,0.7192167043685913
1714858342604364300,6.9453642578125,0.8553543090820312,-0.2125406265258789,0.6743320226669312
1714858342614313700,6.955313720703125,0.5952692031860352,-0.3657035827636719,0.34952622652053833
1714858342624263200,6.96526318359375,0.3386096954345703,-0.23559236526489258,0.4058365523815155
1714858342634212900,6.975212890625,0.3240032196044922,-0.26117658615112305,0.09799140691757202
1714858342644162300,6.985162353515625,0.3502531051635742,-0.2612886428833008,0.2947934865951538
1714858342654111700,6.99511181640625,0.45123958587646484,-0.29513025283813477,0.5534074902534485
1714858342664061200,7.005061279296875,0.6273670196533203,-0.4787278175354004,0.5440635681152344
1714858342674010600,7.0150107421875,0.7881126403808594,-0.6556460857391357,0.3545512557029724
1714858342683960000,7.0249599609375,0.689143180847168,-0.5576679706573486,0.5325762629508972
1714858342693909500,7.034909423828125,0.6261348724365234,-0.32591915130615234,0.8454543352127075
1714858342703859200,7.044859130859375,0.5169677734375,-0.2686424255371094,1.1513113975524902
1714858342713808600,7.05480859375,0.25105762481689453,-0.010996341705322266,1.4473140239715576
1714858342723758000,7.064758056640625,-0.18747425079345703,1.0912394523620605,2.087965965270996
1714858342733707500,7.07470751953125,-0.5803155899047852,-0.4806656837463379,-0.22533127665519714
1714858342743657000,7.084656982421875,-0.606898307800293,-0.906700611114502,-0.9908370971679688
1714858342753606400,7.0946064453125,-0.30455780029296875,-0.3088541030883789,-0.20935207605361938
1714858342763556000,7.10455615234375,-0.36597442626953125,0.11996746063232422,0.553224503993988
1714858342773505500,7.114505615234375,-0.6820516586303711,0.05914449691772461,0.6309324502944946
1714858342783455000,7.124455078125,-0.6134099960327148,-0.014218807220458984,0.8469347953796387
1714858342793404400,7.134404296875,-0.25084400177001953,-0.01116800308227539,1.001178503036499
1714858342803353900,7.144353759765625,0.0723114013671875,0.0070953369140625,0.6848160028457642
1714858342813303300,7.15430322265625,0.25730323791503906,-0.024662494659423828,-0.21328037977218628
1714858342823252700,7.164252685546875,0.15708065032958984,-0.11705684661865234,-1.1989424228668213
1714858342833202400,7.174202392578125,-0.09485530853271484,-0.17170238494873047,-1.7354521751403809
1714858342843152000,7.18415185546875,-0.017602920532226562,-0.09357357025146484,-1.7910727262496948
1714858342853101300,7.194101318359375,0.28742504119873047,0.532951831817627,-1.3405213356018066
1714858342863050800,7.20405078125,0.6449546813964844,1.0914769172668457,-0.07696937024593353
1714858342873000200,7.214000244140625,0.8652858734130859,1.126164436340332,1.0664936304092407
1714858342882949600,7.22394970703125,0.7760696411132812,0.8457803726196289,1.8306183815002441
1714858342892899300,7.2338994140625,0.6396579742431641,0.7074017524719238,2.0149879455566406
1714858342902848800,7.243848876953125,0.4358968734741211,0.8028807640075684,1.935144305229187
1714858342912798200,7.253798095703125,-0.06987285614013672,0.5405077934265137,1.9084726572036743
1714858342922747600,7.26374755859375,-0.8019857406616211,0.19182729721069336,2.1777281761169434
1714858342932697000,7.273697021484375,0.0082244873046875,-0.31809043884277344,2.2461953163146973
1714858342942646500,7.283646484375,1.408228874206543,-0.35097765922546387,2.0484442710876465
1714858342952596000,7.293595947265625,3.0040454864501953,-0.022905349731445312,0.579150378704071
1714858342962545700,7.303545654296875,3.3583860397338867,0.6044573783874512,-0.45542845129966736
1714858342972495000,7.3134951171875,3.4800939559936523,0.9649562835693359,-0.7564647793769836
1714858342982444500,7.323444580078125,3.0905799865722656,0.9397010803222656,-0.7049861550331116
1714858342992394000,7.33339404296875,1.8818140029907227,0.7407312393188477,-0.3808969557285309
1714858343002343400,7.343343505859375,0.39121532440185547,0.44414281845092773,-0.06146836280822754
1714858343012292900,7.35329296875,-0.98052978515625,0.34126949310302734,0.9357976913452148
1714858343022242300,7.3632421875,-1.4807076454162598,0.11189031600952148,2.2397332191467285
1714858343032191700,7.373191650390625,-1.842029094696045,-0.41559696197509766,3.0442028045654297
1714858343042141200,7.38314111328125,-1.8845548629760742,-0.5665345191955566,3.076040267944336
1714858343052090600,7.393090576171875,-1.7988228797912598,-0.5220065116882324,2.6046223640441895
1714858343062040000,7.4030400390625,-1.54548978805542,-0.2620201110839844,1.4413073062896729
1714858343071989500,7.412989501953125,-0.820831298828125,0.02637481689453125,0.04263949394226074
1714858343081939000,7.42293896484375,0.13734912872314453,0.2323756217956543,-1.2152055501937866
1714858343091888400,7.432888427734375,0.786524772644043,0.27858448028564453,-1.7618739604949951
1714858343101837800,7.442837890625,1.2621450424194336,0.3084297180175781,-1.7743628025054932
1714858343111787300,7.452787353515625,0.5792150497436523,-0.014957904815673828,-1.669919490814209
1714858343121736700,7.46273681640625,-0.8297929763793945,-0.2716517448425293,-1.4545550346374512
1714858343131686100,7.47268603515625,-1.2465229034423828,-0.4303593635559082,-0.9870924353599548
1714858343141635600,7.482635498046875,-1.0867080688476562,-0.43752336502075195,-0.15015459060668945
1714858343151585000,7.4925849609375,-1.0702571868896484,-0.1682887077331543,0.41164302825927734
1714858343161534500,7.502534423828125,-1.396131992340088,-0.46053028106689453,-0.05354124307632446
1714858343171484000,7.51248388671875,-1.463782787322998,-0.6510205268859863,-0.590402364730835
1714858343181433300,7.522433349609375,-1.0572967529296875,-0.7184815406799316,-1.0745105743408203
1714858343191382500,7.532382568359375,-0.9963760375976562,-0.46185731887817383,-0.8485650420188904
1714858343201332000,7.54233203125,-0.8920516967773438,-0.2576313018798828,-0.27822166681289673
1714858343211281400,7.552281494140625,-0.2571887969970703,-0.4967784881591797,-0.46031779050827026
1714858343221230800,7.56223095703125,0.30144691467285156,-0.5661115646362305,-0.45146119594573975
1714858343231180300,7.57218017578125,0.8689804077148438,-0.395965576171875,-0.33272677659988403
1714858343241129700,7.582129638671875,0.9224891662597656,-0.422976016998291,-0.03173612803220749
1714858343251079200,7.5920791015625,0.8974504470825195,-0.6143851280212402,-0.2378469705581665
1714858343261028600,7.602028564453125,0.9554424285888672,-0.272122859954834,-0.3994144797325134
1714858343270978000,7.61197802734375,0.26874637603759766,-0.14171886444091797,-0.14716514945030212
1714858343280927500,7.621927490234375,-0.3049049377441406,-0.16732025146484375,-0.40788334608078003
1714858343290877000,7.631876953125,-0.27631664276123047,0.21513080596923828,-0.00782012939453125
1714858343300826400,7.641826416015625,0.18280410766601562,0.07412338256835938,0.20885175466537476
1714858343310775800,7.65177587890625,0.7582454681396484,-0.32609987258911133,-0.4055953025817871
1714858343320725200,7.661725341796875,1.002354621887207,-0.3906083106994629,-0.4479443430900574
1714858343330674700,7.6716748046875,0.9348201751708984,-0.3056020736694336,-0.16709782183170319
1714858343340624100,7.6816240234375,0.5461626052856445,-0.294161319732666,0.2299214005470276
1714858343350573600,7.691573486328125,0.07924938201904297,-0.43404078483581543,0.2626630365848541
1714858343360523000,7.70152294921875,-0.3003826141357422,-0.6115148067474365,0.4574959874153137
1714858343370472400,7.711472412109375,-0.4503450393676758,-0.586923360824585,1.137040138244629
1714858343380422000,7.721421875,-0.4429502487182617,-0.5000641345977783,1.5477018356323242
1714858343390371300,7.731371337890625,-0.22093868255615234,-0.48627161979675293,1.4503138065338135
1714858343400320800,7.74132080078125,-0.012677192687988281,-0.29977989196777344,1.3001455068588257
1714858343410270200,7.751270263671875,0.02953052520751953,-0.204315185546875,1.0356292724609375
1714858343420220000,7.761219970703125,-0.08461952209472656,-0.2557048797607422,0.6707885265350342
1714858343430169300,7.77116943359375,-0.1736307144165039,-0.29450511932373047,0.2962430715560913
1714858343440118800,7.781118896484375,-0.3094301223754883,-0.14810609817504883,0.13432055711746216
1714858343450068200,7.791068115234375,-0.38316822052001953,0.032540321350097656,-0.09207531809806824
1714858343460017700,7.801017578125,-0.19455337524414062,0.013697147369384766,-0.44103434681892395
1714858343469967000,7.810967041015625,-0.044112205505371094,0.013553142547607422,-0.6093155145645142
1714858343479916500,7.82091650390625,-0.18441104888916016,-0.11207294464111328,-0.6618376970291138
1714858343489866200,7.8308662109375,-0.3337535858154297,-0.27063512802124023,-0.47564810514450073
1714858343499815700,7.840815673828125,-0.42647552490234375,-0.1306324005126953,0.2294113039970398
1714858343509765000,7.85076513671875,-0.043056488037109375,-0.10788822174072266,0.6832862496376038
1714858343519714600,7.860714599609375,0.6409235000610352,-0.26441335678100586,0.716059148311615
1714858343529664000,7.8706640625,1.203378677368164,-0.38254547119140625,0.5440264940261841
1714858343539613400,7.880613525390625,1.379134178161621,-0.2604084014892578,0.5020402669906616
1714858343549563100,7.890563232421875,1.2593097686767578,-0.26451826095581055,0.0810222327709198
1714858343559512600,7.9005126953125,0.8528900146484375,-0.3910989761352539,-0.5861518979072571
1714858343569462000,7.9104619140625,0.2016916275024414,-0.21054363250732422,-0.7390775680541992
1714858343579411500,7.920411376953125,-0.5635414123535156,-0.07010364532470703,-0.759114146232605
1714858343589361000,7.93036083984375,-1.1548471450805664,-0.03935861587524414,-0.882504403591156
1714858343599310300,7.940310302734375,-1.379145622253418,0.0005278587341308594,-0.9965484142303467
1714858343609259800,7.950259765625,-1.3665876388549805,0.059281349182128906,-1.0746519565582275
1714858343619209500,7.96020947265625,-1.2023534774780273,0.057691097259521484,-1.059556484222412
1714858343629159000,7.970158935546875,-1.024092674255371,-0.016083240509033203,-0.9716250896453857
1714858343639108400,7.9801083984375,-0.8644475936889648,-0.07744836807250977,-0.7103848457336426
1714858343649057800,7.990057861328125,-0.5982246398925781,-0.19513893127441406,-0.37268608808517456
1714858343659007200,8.00000732421875,-0.31032466888427734,-0.280853271484375,0.002716556191444397
1714858343668956700,8.009956787109376,-0.11377716064453125,-0.3618297576904297,0.3771836757659912
1714858343678906400,8.01990625,0.025930404663085938,-0.4302845001220703,0.5483345985412598
1714858343688855800,8.029855712890624,0.1764078140258789,-0.44927310943603516,0.29854321479797363
1714858343698805200,8.03980517578125,0.13721084594726562,-0.35703468322753906,-0.26188600063323975
1714858343708754700,8.049754638671875,-0.0056438446044921875,-0.23878192901611328,-0.752988338470459
1714858343718704000,8.0597041015625,-0.19073772430419922,-0.15483474731445312,-0.9481946229934692
1714858343728653600,8.069653564453125,-0.4094066619873047,-0.09365415573120117,-0.9382515549659729
1714858343738603000,8.07960302734375,-0.6150379180908203,-0.07669353485107422,-0.8408869504928589
1714858343748552700,8.089552734375,-0.6174001693725586,-0.09276485443115234,-0.710479736328125
1714858343758502100,8.099502197265625,-0.5171060562133789,-0.09917974472045898,-0.48767635226249695
1714858343768451600,8.10945166015625,-0.28462791442871094,-0.08862447738647461,-0.18003396689891815
1714858343778401000,8.119401123046876,0.06207275390625,-0.06891489028930664,0.053637877106666565
1714858343788350500,8.1293505859375,0.27602100372314453,-0.08164548873901367,0.07505986839532852
1714858343798300000,8.1392998046875,0.37763023376464844,-0.10474824905395508,-0.07130451500415802
1714858343808249300,8.149249267578124,0.41552734375,-0.08202075958251953,-0.12234444916248322
1714858343818199000,8.159198974609374,0.43347740173339844,0.013820648193359375,-0.12312611192464828
1714858343828148500,8.1691484375,0.4260568618774414,0.16959095001220703,-0.013645355589687824
1714858343838098000,8.179097900390625,0.27277183532714844,0.3205747604370117,0.038745082914829254
1714858343848047400,8.18904736328125,0.16845035552978516,0.43137168884277344,-0.1801566481590271
1714858343857996800,8.198996826171875,0.19771194458007812,0.44727611541748047,-0.6808406710624695
1714858343867946200,8.2089462890625,0.10697174072265625,0.4212508201599121,-1.1300773620605469
1714858343877896000,8.21889599609375,-0.19886112213134766,0.27666759490966797,-1.3204861879348755
1714858343887845400,8.228845458984376,-0.5290584564208984,0.21135854721069336,-1.2577500343322754
1714858343897794800,8.238794921875,-0.6983346939086914,0.42783546447753906,-0.8527546525001526
1714858343907744300,8.248744140625,-0.8512554168701172,0.7647275924682617,-0.2470126748085022
1714858343917693700,8.258693603515624,-0.6203603744506836,1.0838022232055664,0.23604819178581238
1714858343927643100,8.26864306640625,-0.11506271362304688,1.20560884475708,0.20983222126960754
1714858343937592600,8.278592529296875,0.32703304290771484,1.1644458770751953,-0.028380539268255234
1714858343947542300,8.288542236328125,0.5738725662231445,0.9433131217956543,-0.20470482110977173
1714858343957491700,8.29849169921875,0.5741643905639648,0.7417259216308594,-0.330539345741272
1714858343967441200,8.308441162109375,0.35221004486083984,0.731971263885498,-0.3957691788673401
1714858343977390600,8.318390625,0.12241649627685547,0.8154845237731934,-0.42220696806907654
1714858343987340000,8.328340087890625,0.012744903564453125,0.8938593864440918,-0.5511239767074585
1714858343997289500,8.33828955078125,-0.06364154815673828,0.9730424880981445,-0.8619988560676575
1714858344007239200,8.3482392578125,-0.26016902923583984,0.9775376319885254,-1.068729043006897
1714858344017188600,8.358188720703126,-0.6350021362304688,0.8667111396789551,-1.0327521562576294
1714858344027138000,8.368137939453124,-0.45308780670166016,0.6763887405395508,-0.8672602772712708
1714858344037087500,8.37808740234375,-0.2263469696044922,0.6876249313354492,-0.7657075524330139
1714858344047037000,8.388036865234374,0.12913131713867188,0.7935652732849121,-0.5467908382415771
1714858344056986400,8.397986328125,0.4715442657470703,0.7370972633361816,-0.3147035837173462
1714858344066935800,8.407935791015625,0.4626350402832031,0.5313210487365723,-0.21867533028125763
1714858344076885500,8.417885498046875,0.1792621612548828,0.41639232635498047,-0.22773393988609314
1714858344086835000,8.4278349609375,-0.23659515380859375,0.4774203300476074,-0.3645279109477997
1714858344096784400,8.437784423828125,-0.5333919525146484,0.483853816986084,-0.5961113572120667
1714858344106733800,8.44773388671875,-0.683985710144043,0.39533138275146484,-0.6598221063613892
1714858344116683300,8.457683349609376,-0.6982564926147461,0.360288143157959,-0.543109655380249
1714858344126632700,8.4676328125,-0.7664594650268555,0.390718936920166,-0.37871605157852173
1714858344136582100,8.47758203125,-0.9216299057006836,0.31422853469848633,-0.1925128698348999
1714858344146531300,8.48753125,-1.0163812637329102,0.26220178604125977,0.040781766176223755
1714858344156480800,8.497480712890624,-1.0799503326416016,0.2689371109008789,0.07859444618225098
1714858344166430200,8.50743017578125,-0.9837560653686523,0.22527217864990234,0.049201369285583496
1714858344176379600,8.517379638671875,-0.7426662445068359,0.1133871078491211,0.16313990950584412
1714858344186329000,8.5273291015625,-0.5571022033691406,0.052367210388183594,0.21993744373321533
1714858344196278500,8.537278564453125,-0.3498506546020508,-0.002414226531982422,0.23741686344146729
1714858344206228000,8.54722802734375,-0.024251937866210938,-0.07791709899902344,0.1527247130870819
1714858344216177400,8.557177490234375,0.3966236114501953,-0.13495540618896484,-0.13753503561019897
1714858344226126800,8.567126953125,0.5407285690307617,-0.21079397201538086,-0.39794474840164185
1714858344236076300,8.577076171875,0.5854282379150391,-0.3408622741699219,-0.5073838829994202
1714858344246025700,8.587025634765626,0.6502161026000977,-0.4717249870300293,-0.4998670816421509
1714858344255975200,8.59697509765625,0.6249103546142578,-0.5059654712677002,-0.3878648281097412
1714858344265924600,8.606924560546876,0.5239734649658203,-0.4667787551879883,-0.1685391068458557
1714858344275874000,8.6168740234375,0.44333839416503906,-0.3828706741333008,0.09354555606842041
1714858344285823500,8.626823486328124,0.4787559509277344,-0.31593894958496094,0.3473539352416992
1714858344295773000,8.63677294921875,0.5014305114746094,-0.23705649375915527,0.5886765718460083
1714858344305722400,8.646722412109375,0.4594240188598633,-0.18081951141357422,0.7513113021850586
1714858344315671800,8.656671875,0.20999622344970703,-0.08156633377075195,0.6412327289581299
1714858344325621200,8.666621337890625,0.0013217926025390625,0.09005546569824219,0.2242724597454071
1714858344335570700,8.67657080078125,-0.07738208770751953,0.14565682411193848,-0.20438611507415771
1714858344345519900,8.686519775390625,-0.22829341888427734,0.10315895080566406,-0.44379860162734985
1714858344355469300,8.69646923828125,-0.5044755935668945,0.050359487533569336,-0.4209408462047577
1714858344365418800,8.706418701171875,-0.7054767608642578,0.031028270721435547,-0.2276831865310669
1714858344375368200,8.7163681640625,-0.6882400512695312,0.09766101837158203,-0.024747759103775024
1714858344385317600,8.726317626953126,-0.5339841842651367,0.18695950508117676,0.2178039699792862
1714858344395267000,8.73626708984375,-0.3236227035522461,0.269336462020874,0.5534830689430237
1714858344405216500,8.746216552734374,-0.061496734619140625,0.39153242111206055,0.6859638094902039
1714858344415166000,8.756166015625,0.1811990737915039,0.5424342155456543,0.5804015398025513
1714858344425115400,8.766115478515625,0.3142108917236328,0.6298296451568604,0.30005112290382385
1714858344435064800,8.77606494140625,0.2952404022216797,0.6476016044616699,-0.16110193729400635
1714858344445014300,8.78601416015625,0.2105112075805664,0.6101372241973877,-0.7215979695320129
1714858344454963700,8.795963623046875,0.03597545623779297,0.5995726585388184,-1.1962798833847046
1714858344464913200,8.8059130859375,-0.1761789321899414,0.5889449119567871,-1.4221558570861816
1714858344474862600,8.815862548828125,-0.34984397888183594,0.5652413368225098,-1.4036946296691895
1714858344484812000,8.82581201171875,-0.21766948699951172,0.5716240406036377,-1.2658922672271729
1714858344494761500,8.835761474609376,0.16737937927246094,0.6212666034698486,-1.1054306030273438
1714858344504711000,8.8457109375,0.5138463973999023,0.664402961730957,-0.902331531047821
1714858344514660400,8.855660400390626,0.6980581283569336,0.5516068935394287,-0.6433258056640625
1714858344524610000,8.865610107421874,0.7872581481933594,0.3026437759399414,-0.4157540798187256
1714858344534559500,8.8755595703125,0.8200302124023438,0.07032632827758789,-0.3068235218524933
1714858344544509000,8.885509033203125,0.7346715927124023,-0.06510567665100098,-0.2762219309806824
1714858344554458400,8.895458251953125,0.5460882186889648,-0.08116436004638672,-0.2589987516403198
1714858344564407800,8.90540771484375,0.43117618560791016,-0.044835567474365234,-0.23576848208904266
1714858344574357200,8.915357177734375,0.494537353515625,-0.026996374130249023,-0.17324234545230865
1714858344584306700,8.925306640625,0.5301589965820312,-0.022334575653076172,-0.14197944104671478
1714858344594256400,8.93525634765625,0.5002174377441406,-0.03674435615539551,-0.13205045461654663
1714858344604205800,8.945205810546875,0.47208499908447266,-0.08086633682250977,-0.16310705244541168
1714858344614155300,8.9551552734375,0.5270318984985352,-0.11661148071289062,-0.14864227175712585
1714858344624104700,8.965104736328126,0.4639759063720703,-0.09530138969421387,-0.14168624579906464
1714858344634054100,8.97505419921875,0.2064037322998047,-0.07783293724060059,-0.10181821882724762
1714858344644003600,8.985003662109374,-0.04968070983886719,-0.09172272682189941,-0.10719820111989975
1714858344653953300,8.994953369140624,-0.16620731353759766,-0.08280563354492188,-0.08855997771024704
1714858344663902700,9.00490283203125,-0.1057577133178711,-0.07836294174194336,0.052745796740055084
1714858344673852200,9.01485205078125,-0.012037277221679688,-0.02118372917175293,0.13244007527828217
1714858344683801600,9.024801513671875,0.08154964447021484,-0.012023687362670898,-0.012223481200635433
1714858344693751000,9.0347509765625,0.13662338256835938,-0.031054019927978516,-0.20255477726459503
1714858344703700500,9.044700439453125,-0.037728309631347656,0.041086673736572266,-0.12234490364789963
1714858344713650000,9.05464990234375,-0.13979339599609375,0.06006813049316406,-0.08372199535369873
1714858344723599600,9.064599609375,-0.13651657104492188,0.13642263412475586,-0.0061464980244636536
1714858344733549000,9.074549072265626,-0.023668289184570312,0.2565269470214844,0.04304502159357071
1714858344743498500,9.08449853515625,0.12157344818115234,0.2068798542022705,0.14315025508403778
1714858344753448000,9.094447998046874,0.05529022216796875,0.0793607234954834,0.22931908071041107
1714858344763397400,9.1043974609375,-0.05453014373779297,0.03562474250793457,0.2907496988773346
1714858344773346800,9.114346923828125,-0.1311206817626953,-0.025571823120117188,0.20499078929424286
1714858344783296500,9.124296630859375,-0.15129470825195312,-0.17392206192016602,-0.04351725056767464
1714858344793246000,9.134245849609375,-0.2921428680419922,-0.0406496524810791,0.0662822499871254
1714858344803195400,9.1441953125,-0.2232198715209961,0.25228214263916016,0.10565336793661118
1714858344813144800,9.154144775390625,-0.03535175323486328,0.4545021057128906,0.15075534582138062
1714858344823094300,9.16409423828125,0.13759136199951172,0.39839959144592285,0.10510873794555664
1714858344833043700,9.174043701171875,0.28124237060546875,0.16605281829833984,-0.05299786478281021
1714858344842993200,9.1839931640625,0.30035400390625,-0.0564274787902832,-0.18459829688072205
1714858344852942800,9.19394287109375,0.23869800567626953,-0.1415250301361084,-0.22567400336265564
1714858344862892300,9.203892333984374,0.2832965850830078,-0.08145332336425781,-0.2195064127445221
1714858344872841700,9.213841796875,0.3432188034057617,0.05187416076660156,-0.13452410697937012
1714858344882791200,9.223791259765624,0.1890573501586914,0.17747187614440918,-0.08304901421070099
1714858344892740600,9.23374072265625,-0.11690235137939453,0.2007465362548828,-0.0769098624587059
1714858344902690000,9.24368994140625,-0.43646907806396484,0.18598389625549316,-0.07747045159339905
1714858344912639700,9.2536396484375,-0.627253532409668,0.17412972450256348,-0.08547419309616089
1714858344922589200,9.263589111328125,-0.6568231582641602,0.2291867733001709,-0.09466223418712616
1714858344932538600,9.27353857421875,-0.5402660369873047,0.289898157119751,-0.07970539480447769
1714858344942488000,9.283488037109375,-0.37832164764404297,0.22748541831970215,-0.03693707659840584
1714858344952437500,9.2934375,-0.30960845947265625,-0.04870915412902832,-0.07993559539318085
1714858344962387000,9.303386962890626,-0.22882556915283203,-0.19517922401428223,0.034198880195617676
1714858344972336400,9.31333642578125,0.01621246337890625,-0.030543804168701172,0.3548343777656555
1714858344982286000,9.3232861328125,0.3676128387451172,0.172515869140625,0.45541101694107056
1714858344992235500,9.333235595703124,0.3480710983276367,0.22007513046264648,0.2685290575027466
1714858345002185000,9.34318505859375,0.06699562072753906,0.12516164779663086,-0.06474127620458603
1714858345012134400,9.353134521484375,-0.16595458984375,0.005319118499755859,-0.29229918122291565
1714858345022083800,9.363083740234375,-0.26302528381347656,0.018793821334838867,-0.32359057664871216
1714858345032033300,9.373033203125,-0.24597644805908203,0.11338353157043457,-0.1941957175731659
1714858345041983000,9.38298291015625,-0.25362205505371094,0.18992877006530762,-0.016551226377487183
1714858345051932400,9.392932373046875,-0.2528800964355469,0.16001224517822266,0.15751513838768005
1714858345061881900,9.4028818359375,-0.2437429428100586,0.09559130668640137,0.2714614272117615
1714858345071831300,9.412831298828126,-0.12720012664794922,0.00605010986328125,0.2572460174560547
1714858345081780700,9.42278076171875,0.03431510925292969,-0.09545755386352539,0.17434993386268616
1714858345091730200,9.432730224609376,0.25482940673828125,-0.07838845252990723,0.103480264544487
1714858345101679600,9.4426796875,0.5048923492431641,-0.047922372817993164,0.15248629450798035
1714858345111629000,9.452629150390624,0.3790102005004883,-0.009098529815673828,0.14492982625961304
1714858345121578500,9.46257861328125,0.13791465759277344,-0.014235258102416992,0.050989240407943726
1714858345131528000,9.47252783203125,0.00437164306640625,-0.061371803283691406,-0.013767451047897339
1714858345141477400,9.482477294921875,-0.06182098388671875,-0.07754373550415039,0.0026814043521881104
1714858345151426800,9.4924267578125,-0.0948038101196289,-0.00685882568359375,0.002368748188018799
1714858345161376300,9.502376220703125,0.013743400573730469,0.10557389259338379,-0.0516628623008728
1714858345171325700,9.51232568359375,0.2333507537841797,0.10800361633300781,-0.003442823886871338
1714858345181275100,9.522275146484375,0.33647727966308594,0.03428173065185547,0.0654347836971283
1714858345191224600,9.532224609375,0.3497734069824219,-0.06080007553100586,0.13649529218673706
1714858345201174000,9.542174072265626,0.36015987396240234,-0.11731910705566406,0.22544273734092712
1714858345211123500,9.55212353515625,0.2779693603515625,-0.06479740142822266,0.24535641074180603
1714858345221073000,9.562072998046874,0.1746044158935547,0.07774591445922852,0.23204874992370605
1714858345231022300,9.572022216796874,0.025720596313476562,0.21271705627441406,0.012795716524124146
1714858345240971800,9.5819716796875,-0.0836029052734375,0.22864913940429688,-0.2119494378566742
1714858345250921200,9.591921142578125,-0.12057209014892578,0.1265571117401123,-0.2896108627319336
1714858345260870700,9.60187060546875,-0.08096504211425781,0.015064716339111328,-0.20185893774032593
1714858345270820000,9.611820068359375,0.07224559783935547,-0.04132580757141113,-0.023260146379470825
1714858345280769500,9.62176953125,0.2008504867553711,-0.044008731842041016,0.13978737592697144
1714858345290718700,9.63171875,0.2299032211303711,-0.0407865047454834,0.168879896402359
1714858345300668200,9.641668212890625,0.21719741821289062,-0.06360101699829102,0.05593591183423996
1714858345310617600,9.65161767578125,0.16717910766601562,0.02716064453125,-0.16702236235141754
1714858345320567000,9.661567138671876,-0.14229774475097656,-0.020678043365478516,-0.4431009888648987
1714858345330516500,9.6715166015625,-0.6998786926269531,-0.21676349639892578,-0.8884907960891724
1714858345340466000,9.6814658203125,-1.4180498123168945,0.038869619369506836,-0.703871488571167
1714858345350415400,9.691415283203124,-1.4942502975463867,0.3305361270904541,-0.32420554757118225
1714858345360364800,9.70136474609375,-1.244760513305664,0.43998169898986816,0.01842278242111206
1714858345370314200,9.711314208984374,-0.7959775924682617,0.37981605529785156,0.2637794017791748
1714858345380263700,9.721263671875,-0.012352943420410156,0.2813093662261963,0.3436312973499298
1714858345390213000,9.731213134765625,0.7170953750610352,0.2821640968322754,0.3435266315937042
1714858345400162600,9.74116259765625,1.0798025131225586,0.20573878288269043,0.33642706274986267
1714858345410112000,9.751112060546875,0.9036407470703125,0.09054303169250488,0.11033123731613159
1714858345420061400,9.7610615234375,0.5311689376831055,0.04830288887023926,-0.11197361350059509
1714858345430011000,9.771010986328125,0.11529827117919922,-0.05967116355895996,-0.26628175377845764
1714858345439960300,9.780960205078125,-0.2687854766845703,-0.019237041473388672,-0.6223153471946716
1714858345449909800,9.79090966796875,-0.46631526947021484,0.31607484817504883,-0.3548886477947235
1714858345459859200,9.800859130859376,-0.35831737518310547,0.5628111362457275,0.02742740511894226
1714858345469808600,9.81080859375,-0.18840408325195312,0.45104026794433594,0.21918094158172607
1714858345479758000,9.820758056640624,-0.15718746185302734,0.09040641784667969,0.09731867909431458
1714858345489707300,9.830707275390624,-0.1452808380126953,-0.1837749481201172,0.012395381927490234
1714858345499656700,9.84065673828125,-0.08594989776611328,-0.1852707862854004,0.10642290115356445
1714858345509606100,9.850606201171875,-0.04175281524658203,-0.024357318878173828,0.2084144651889801
1714858345519555800,9.860555908203125,-0.08028221130371094,0.0568845272064209,0.12113982439041138
1714858345529505300,9.87050537109375,-0.2251749038696289,0.05060219764709473,-0.10849732160568237
1714858345539454700,9.880454833984375,-0.48518848419189453,0.0865178108215332,-0.28279805183410645
1714858345549404200,9.890404052734375,-0.7593574523925781,0.016353845596313477,-0.22974014282226562
1714858345559353600,9.900353515625,-0.823399543762207,-0.00497126579284668,-0.4567108154296875
1714858345569303000,9.910302978515626,-0.6111516952514648,0.4697582721710205,-0.3742023706436157
1714858345579252500,9.92025244140625,-0.2228546142578125,0.7330899238586426,-0.15878009796142578
1714858345589202200,9.9302021484375,-0.07392692565917969,0.46759891510009766,-0.27737438678741455
1714858345599151600,9.940151611328124,-0.09283447265625,0.057920217514038086,-0.34597545862197876
1714858345609101000,9.95010107421875,0.05505943298339844,-0.1210932731628418,-0.004531502723693848
1714858345619050500,9.960050537109375,0.1981334686279297,-0.07448720932006836,0.44215288758277893
1714858345629000000,9.97,0.1359844207763672,-0.07542538642883301,0.6175884008407593
1714858345638949400,9.979949462890625,0.09792137145996094,-0.06162524223327637,0.5543652176856995
1714858345648899000,9.989899169921875,-0.08374404907226562,-0.008322000503540039,0.27925029397010803
1714858345658848500,9.9998486328125,-0.1412353515625,0.04681539535522461,0.06650424003601074
1714858345668798000,10.0097978515625,-0.10331058502197266,0.046172142028808594,0.10840582847595215
1714858345678747400,10.019747314453125,-0.03670215606689453,0.059975385665893555,0.20260930061340332
1714858345688696800,10.02969677734375,0.0062103271484375,0.10210800170898438,0.2979446351528168
1714858345698646300,10.039646240234376,0.1019601821899414,0.1577296257019043,0.3075931966304779
1714858345708595700,10.049595703125,0.15935993194580078,0.1830425262451172,0.16333472728729248
1714858345718545400,10.05954541015625,0.2549324035644531,0.14394807815551758,-0.021949172019958496
1714858345728494800,10.069494873046875,0.5041265487670898,0.08198189735412598,-0.10323542356491089
1714858345738444300,10.0794443359375,0.7932004928588867,0.008971452713012695,-0.15370118618011475
1714858345748393700,10.089393798828125,1.036789894104004,-0.04399681091308594,-0.16689544916152954
1714858345758343200,10.09934326171875,1.05841064453125,-0.12226510047912598,-0.10548621416091919
1714858345768292600,10.109292724609375,0.9249811172485352,-0.17804813385009766,0.03358924388885498
1714858345778242300,10.1192421875,0.7127399444580078,-0.18523025512695312,0.12127768993377686
1714858345788191700,10.129191650390625,0.34458255767822266,-0.12479686737060547,0.02338242530822754
1714858345798141200,10.13914111328125,-0.08949756622314453,-0.09745240211486816,-0.09214633703231812
1714858345808090600,10.149090576171876,-0.4758567810058594,0.0007688999176025391,-0.022207915782928467
1714858345818040000,10.1590400390625,-0.705683708190918,0.08664894104003906,0.12156212329864502
1714858345827989500,10.168989501953124,-0.7320117950439453,0.17621111869812012,0.18212246894836426
1714858345837939000,10.17893896484375,-0.6462297439575195,0.1411914825439453,0.16048753261566162
1714858345847888600,10.188888671875,-0.4000129699707031,0.0018398761749267578,0.24042469263076782
1714858345857838000,10.198838134765625,-0.19327163696289062,0.006583213806152344,0.4140639305114746
