time,seconds_elapsed,z,y,x
1714858335749173200,0.09017333984375,9.897629737854004,4.912901878356934,0.42616790533065796
1714858335759122700,0.100122802734375,9.715670585632324,5.07570743560791,0.35913026332855225
1714858335769072000,0.110072021484375,9.279925346374512,5.142745018005371,0.10534487664699554
1714858335779021600,0.120021484375,8.954314231872559,5.238513469696045,-0.1388636976480484
1714858335788971000,0.129970947265625,8.619126319885254,5.310339450836182,-0.4165911078453064
1714858335798920400,0.13992041015625,8.437167167663574,5.305551052093506,-0.5841852426528931
1714858335808870000,0.149869873046875,8.5903959274292,5.2672438621521,-0.6177040338516235
1714858335818819300,0.1598193359375,8.796297073364258,5.161899089813232,-0.5937620401382446
1714858335828768800,0.169768798828125,9.040505409240723,5.070919036865234,-0.3878606855869293
1714858335838718200,0.17971826171875,9.174580574035645,5.051765441894531,-0.1149216815829277
1714858335848667600,0.189667724609375,8.959102630615234,5.066130638122559,0.11013327538967133
1714858335858617000,0.1996171875,8.561665534973145,5.142745018005371,0.2298433631658554
1714858335868566300,0.209566162109375,8.202534675598145,5.262455463409424,0.2537853717803955
1714858335878515700,0.219515625,8.006210327148438,5.319916248321533,0.16759411990642548
1714858335888465200,0.229465087890625,7.857769966125488,5.262455463409424,-0.047884032130241394
1714858335898414600,0.23941455078125,7.805097579956055,5.214571475982666,-0.26815059781074524
1714858335908364000,0.249364013671875,7.848193168640137,5.295974254608154,-0.45489832758903503
1714858335918313500,0.2593134765625,7.948749542236328,5.386953830718994,-0.5171475410461426
1714858335928263000,0.269262939453125,8.073247909545898,5.386953830718994,-0.43095630407333374
1714858335938212400,0.27921240234375,8.24084186553955,5.315127849578857,-0.40701428055763245
1714858335948161800,0.289161865234375,8.49941635131836,5.276820659637451,-0.5363011956214905
1714858335958111200,0.299111328125,8.705317497253418,5.228936672210693,-0.5267243981361389
1714858335968060700,0.309060791015625,8.734047889709473,5.166687488555908,-0.2537853717803955
1714858335978010000,0.319010009765625,8.47547435760498,5.1331682205200195,0.06703764945268631
1714858335987959600,0.32895947265625,8.202534675598145,5.214571475982666,0.2059013396501541
1714858335997909000,0.338908935546875,8.192957878112793,5.39174222946167,0.05267243832349777
1714858336007858400,0.3488583984375,8.403648376464844,5.525817394256592,-0.22026655077934265
1714858336017808000,0.358807861328125,8.49941635131836,5.5114521980285645,-0.4165911078453064
1714858336027757300,0.36875732421875,8.5903959274292,5.453991413116455,-0.49320554733276367
1714858336037706800,0.378706787109375,8.719682693481445,5.477933406829834,-0.5027823448181152
1714858336047656200,0.38865625,8.825027465820312,5.406107425689697,-0.35434186458587646
1714858336057605600,0.398605712890625,8.887276649475098,5.2049946784973145,-0.023942016065120697
1714858336067554800,0.408554931640625,8.911218643188477,4.98472785949707,0.2585737705230713
1714858336077504300,0.418504150390625,8.734047889709473,4.778826713562012,0.4405331015586853
1714858336087454000,0.428453857421875,8.451532363891602,4.639962673187256,0.3687070608139038
1714858336097403400,0.4384033203125,8.403648376464844,4.730942726135254,0.06703764945268631
1714858336107352800,0.448352783203125,8.595184326171875,4.989516258239746,-0.2106897532939911
1714858336117302300,0.45830224609375,8.93037223815918,5.07570743560791,-0.545877993106842
1714858336127251700,0.468251708984375,9.399636268615723,4.908113479614258,-0.7565677165985107
1714858336137201200,0.478201171875,10.256759643554688,4.797980308532715,-0.608127236366272
1714858336147150600,0.488150634765625,11.128249168395996,4.721365928649902,-0.363918662071228
1714858336157100300,0.498100341796875,11.60708999633789,4.481945514678955,-0.28730419278144836
1714858336167049700,0.5080498046875,11.587936401367188,4.352658748626709,-0.1388636976480484
1714858336176999200,0.517999267578125,10.970232009887695,4.376600742340088,-0.2825157940387726
1714858336186948600,0.527948486328125,10.041281700134277,4.5394062995910645,-0.5937620401382446
1714858336196898000,0.53789794921875,9.102754592895508,4.888959884643555,-0.5506663918495178
1714858336206847500,0.547847412109375,8.336610794067383,4.898536682128906,-0.07661445438861847
1714858336216797200,0.557797119140625,8.494627952575684,4.7836151123046875,0.6655880808830261
1714858336226746600,0.56774658203125,9.002198219299316,4.95120906829834,1.278503656387329
1714858336236696000,0.577696044921875,9.131484985351562,5.061342239379883,1.6328455209732056
1714858336246645500,0.5876455078125,8.829815864562988,5.032611846923828,1.7286136150360107
1714858336256595000,0.597594970703125,8.556877136230469,4.917690277099609,1.8148049116134644
1714858336266544400,0.60754443359375,8.422801971435547,4.711789131164551,1.5705963373184204
1714858336276493800,0.617493896484375,8.197746276855469,4.611232280731201,0.8188169598579407
1714858336286443500,0.627443603515625,7.843404769897461,4.616020679473877,-0.24420857429504395
1714858336296393000,0.63739306640625,7.824251174926758,4.831499099731445,-0.9720458984375
1714858336306342400,0.64734228515625,8.08282470703125,4.95120906829834,-1.2114660739898682
1714858336316291800,0.657291748046875,8.53293514251709,4.649539470672607,-1.1204863786697388
1714858336326241300,0.6672412109375,8.939949035644531,4.587290287017822,-0.608127236366272
1714858336336190700,0.677190673828125,8.935160636901855,4.558559894561768,-0.24420857429504395
1714858336346140400,0.687140380859375,8.427590370178223,4.01268196105957,-0.5410895943641663
1714858336356089900,0.69708984375,7.785943984985352,3.754108190536499,-1.0438719987869263
1714858336366039300,0.707039306640625,7.522581577301025,3.6774938106536865,-1.8531121015548706
1714858336375988700,0.71698876953125,8.255207061767578,3.1459810733795166,-2.762908697128296
1714858336385938200,0.726938232421875,8.78193187713623,3.1220390796661377,-3.754108190536499
1714858336395887600,0.7368876953125,8.02536392211914,2.853888511657715,-4.558559894561768
1714858336405837000,0.746837158203125,6.809109687805176,2.561795711517334,-4.022258758544922
1714858336415786800,0.756786865234375,6.057330131530762,3.0406360626220703,-4.170699596405029
1714858336425736200,0.766736083984375,5.65031623840332,3.864241600036621,-4.553771495819092
1714858336435685600,0.776685546875,5.228936672210693,4.180276393890381,-4.654327869415283
1714858336445635000,0.786635009765625,5.118803024291992,3.931279182434082,-4.548983097076416
1714858336455584500,0.79658447265625,6.200982570648193,2.9688100814819336,-3.5386300086975098
1714858336465534000,0.806533935546875,8.647856712341309,2.0685901641845703,-2.432508945465088
1714858336475483600,0.816483642578125,10.577583312988281,1.6903064250946045,-1.8579005002975464
1714858336485433000,0.82643310546875,12.301408767700195,2.0829553604125977,-2.849100112915039
1714858336495382500,0.836382568359375,16.2087459564209,3.60566782951355,-3.840299606323242
1714858336505332000,0.84633203125,17.73145866394043,4.467580318450928,-3.734954595565796
1714858336515281400,0.856281494140625,16.4816837310791,4.367023944854736,-2.537853717803955
1714858336525230800,0.86623095703125,13.939042091369629,3.7445313930511475,-1.843535304069519
1714858336535180300,0.87618017578125,10.912771224975586,3.2178070545196533,-2.628833532333374
1714858336545130000,0.8861298828125,8.327033042907715,3.691859006881714,-2.049436569213867
1714858336555079400,0.896079345703125,5.128379821777344,4.352658748626709,-1.7094600200653076
1714858336565028900,0.90602880859375,1.9632453918457031,4.687847137451172,-3.361459255218506
1714858336574978300,0.915978271484375,4.199429988861084,3.8977603912353516,-5.851428985595703
1714858336584927700,0.925927734375,5.856217384338379,2.1739351749420166,-9.275136947631836
1714858336594877200,0.935877197265625,5.822698593139648,4.644751071929932,-3.361459255218506
1714858336604827000,0.945826904296875,12.521675109863281,6.54574728012085,4.20421838760376
1714858336614776300,0.9557763671875,13.589488983154297,5.985504150390625,7.053318023681641
1714858336624725800,0.965725830078125,11.578359603881836,3.993528366088867,6.110002517700195
1714858336634675200,0.97567529296875,11.329362869262695,1.5083470344543457,4.338293552398682
1714858336644624600,0.985624755859375,12.559982299804688,1.0582371950149536,2.8874073028564453
1714858336654574000,0.995573974609375,14.757859230041504,2.6384103298187256,2.2218191623687744
1714858336664523500,1.0055234375,14.824896812438965,4.156333923339844,1.2737152576446533
1714858336674473200,1.01547314453125,12.176909446716309,3.8786067962646484,-0.090979665517807
1714858336684422700,1.025422607421875,9.466673851013184,3.155557870864868,-1.1252747774124146
1714858336694372000,1.0353720703125,8.015787124633789,3.490746021270752,-1.403002142906189
1714858336704321500,1.045321533203125,7.680599212646484,4.213795185089111,-1.8722656965255737
1714858336714271000,1.05527099609375,7.757213592529297,4.309563159942627,-1.9345149993896484
1714858336724220400,1.065220458984375,7.493851184844971,3.840299606323242,-1.3934253454208374
1714858336734170000,1.075170166015625,7.216124057769775,3.5673606395721436,-0.37828385829925537
1714858336744119600,1.08511962890625,7.445967197418213,3.821146011352539,1.359906554222107
1714858336754069000,1.095069091796875,8.159439086914062,4.199429988861084,2.9448680877685547
1714858336764018400,1.105018310546875,8.734047889709473,4.352658748626709,3.864241600036621
1714858336773968000,1.1149677734375,9.624691009521484,4.529829502105713,4.481945514678955
1714858336783917300,1.124917236328125,10.539276123046875,4.381389141082764,3.758896589279175
1714858336793866800,1.13486669921875,11.420342445373535,3.648763418197632,1.3982137441635132
1714858336803816400,1.14481640625,12.258312225341797,3.3662476539611816,-0.3256114423274994
1714858336813766000,1.154765869140625,12.473791122436523,3.222595453262329,-0.6847416758537292
1714858336823715300,1.16471533203125,11.765107154846191,3.2417490482330322,0.2825157940387726
1714858336833664800,1.174664794921875,9.57201862335205,3.2321722507476807,2.1930887699127197
1714858336843614200,1.1846142578125,8.336610794067383,3.509899616241455,3.8786067962646484
1714858336853563600,1.194563720703125,7.618350028991699,3.998316764831543,4.443638324737549
1714858336863513300,1.204513427734375,7.95832633972168,4.141968727111816,4.031835556030273
1714858336873462800,1.214462890625,8.767566680908203,4.692635536193848,2.940079689025879
1714858336883412200,1.224412109375,9.27034854888916,5.257667064666748,1.3120225667953491
1714858336893361700,1.234361572265625,7.90086555480957,5.348646640777588,-0.05267243832349777
1714858336903311000,1.24431103515625,5.1810526847839355,5.458779811859131,-1.1300631761550903
1714858336913260500,1.254260498046875,3.557783842086792,5.3582234382629395,-2.1739351749420166
1714858336923210000,1.2642099609375,3.4572272300720215,5.056553840637207,-2.518700122833252
1714858336933159700,1.27415966796875,3.8355112075805664,5.837063789367676,-1.3407529592514038
1714858336943109000,1.284109130859375,4.4723687171936035,6.27280855178833,0.12449848651885986
1714858336953058600,1.29405859375,5.195417881011963,6.033388137817383,0.4692635238170624
1714858336963008000,1.304008056640625,5.971138954162598,5.51624059677124,0.05267243832349777
1714858336972957400,1.31395751953125,7.5417351722717285,5.0900726318359375,0.49799394607543945
1714858336982907000,1.323906982421875,10.256759643554688,4.903325080871582,1.0965443849563599
1714858336992856600,1.333856689453125,11.999738693237305,4.223371982574463,0.9241618514060974
1714858337002806000,1.343805908203125,11.994950294494629,3.9408559799194336,0.6416460275650024
1714858337012755500,1.35375537109375,11.473014831542969,4.501099109649658,0.8092401623725891
1714858337022705000,1.363704833984375,10.577583312988281,4.989516258239746,1.2114660739898682
1714858337032654300,1.373654296875,9.313444137573242,5.070919036865234,1.4221558570861816
1714858337042603800,1.383603759765625,8.44195556640625,4.9799394607543945,1.1492167711257935
1714858337052553200,1.39355322265625,8.159439086914062,4.917690277099609,0.7469909191131592
1714858337062503000,1.4035029296875,8.106766700744629,4.831499099731445,0.7948749661445618
1714858337072452400,1.413452392578125,9.337387084960938,5.008669853210449,1.0103530883789062
1714858337082401800,1.42340185546875,10.927136421203613,5.3342814445495605,1.4269442558288574
1714858337092351200,1.433351318359375,11.314997673034668,5.1331682205200195,2.1164743900299072
1714858337102300700,1.44330078125,10.371682167053223,4.917690277099609,2.9161376953125
1714858337112250000,1.45325,9.461885452270508,5.027823448181152,2.911349296569824
1714858337122199600,1.463199462890625,9.576807022094727,5.109226226806641,2.255337953567505
1714858337132149200,1.473149169921875,9.787496566772461,4.9799394607543945,1.0582371950149536
1714858337142098700,1.4830986328125,10.467450141906738,5.30076265335083,0.3734954595565796
1714858337152048000,1.493048095703125,11.492168426513672,5.4875102043151855,-0.33518823981285095
1714858337161997600,1.50299755859375,12.483367919921875,5.57370138168335,-0.5219359993934631
1714858337171947000,1.512947021484375,12.914323806762695,4.903325080871582,-0.9481038451194763
1714858337181896400,1.522896484375,10.831368446350098,4.5394062995910645,0.1388636976480484
1714858337191846100,1.53284619140625,7.829039573669434,5.142745018005371,2.3080103397369385
1714858337201795600,1.542795654296875,6.794744491577148,4.8267107009887695,2.6671407222747803
1714858337211745000,1.5527451171875,6.574477672576904,4.314351558685303,2.207453966140747
1714858337221694500,1.562694580078125,6.732495307922363,4.525041103363037,1.6663644313812256
1714858337231644000,1.572643798828125,7.292738437652588,4.3622355461120605,0.8954314589500427
1714858337241593300,1.58259326171875,7.503427982330322,5.200206279754639,1.5705963373184204
1714858337251542800,1.592542724609375,8.17380428314209,5.281609058380127,0.49320554733276367
1714858337261492500,1.602492431640625,8.892065048217773,4.659116744995117,-0.07182604819536209
1714858337271442000,1.61244189453125,9.696516990661621,3.9408559799194336,-0.37828385829925537
1714858337281391400,1.622391357421875,10.022128105163574,4.7836151123046875,0.8954314589500427
1714858337291340800,1.6323408203125,9.907206535339355,4.812345504760742,0.7469909191131592
1714858337301290200,1.642290283203125,9.370905876159668,4.381389141082764,-0.17717093229293823
1714858337311239700,1.65223974609375,9.011775016784668,3.8738183975219727,-0.751779317855835
1714858337321189400,1.662189453125,8.815450668334961,3.869029998779297,-0.6033388376235962
1714858337331138800,1.672138916015625,8.288725852966309,4.323928356170654,-0.043095629662275314
1714858337341088300,1.682088134765625,7.536946773529053,4.649539470672607,0.22026655077934265
1714858337351037700,1.69203759765625,6.665457725524902,4.707000732421875,-0.019153613597154617
1714858337360987100,1.701987060546875,6.234501361846924,4.649539470672607,-0.3064578175544739
1714858337370936600,1.7119365234375,6.6846113204956055,4.520252704620361,-0.7996633648872375
1714858337380886000,1.721885986328125,7.407660007476807,4.702212333679199,-0.5554547905921936
1714858337390835700,1.731835693359375,7.987056732177734,4.788403511047363,-0.19632454216480255
1714858337400785200,1.74178515625,9.184157371520996,4.577713489532471,-0.33518823981285095
1714858337410734600,1.751734619140625,11.24795913696289,4.338293552398682,-1.139639973640442
1714858337420684000,1.76168408203125,12.401965141296387,4.0078935623168945,-1.920149803161621
1714858337430633500,1.771633544921875,12.674903869628906,3.691859006881714,-1.8818424940109253
1714858337440583000,1.7815830078125,12.952630996704102,3.825934410095215,-1.4173674583435059
1714858337450532600,1.79153271484375,12.919112205505371,3.7493197917938232,-1.1444283723831177
1714858337460482000,1.80148193359375,12.325350761413574,3.576937437057495,-1.015141487121582
1714858337470431500,1.811431396484375,11.267112731933594,3.754108190536499,-1.115697979927063
1714858337480381000,1.821380859375,9.983820915222168,3.869029998779297,-1.5897499322891235
1714858337490330400,1.831330322265625,8.93037223815918,3.869029998779297,-2.164358377456665
1714858337500279800,1.84127978515625,8.446743965148926,4.041412353515625,-2.3750481605529785
1714858337510229200,1.851229248046875,8.78193187713623,4.194641590118408,-2.3511061668395996
1714858337520179000,1.861178955078125,9.519346237182617,4.271255970001221,-2.542642116546631
1714858337530128400,1.87112841796875,9.418789863586426,4.357447147369385,-2.231395959854126
1714858337540077800,1.881077880859375,8.877699851989746,4.2951979637146,-1.4844050407409668
1714858337550027300,1.89102734375,8.571242332458496,4.017470359802246,-1.048660397529602
1714858337559976700,1.900976806640625,8.489839553833008,3.9456443786621094,-0.9097966551780701
1714858337569926100,1.910926025390625,8.250418663024902,4.036623954772949,-0.8379706144332886
1714858337579875800,1.920875732421875,8.178592681884766,3.907337188720703,-0.9002198576927185
1714858337589825300,1.9308251953125,8.312667846679688,3.9169139862060547,-1.1635819673538208
1714858337599774700,1.940774658203125,8.327033042907715,4.041412353515625,-1.2545616626739502
1714858337609724200,1.95072412109375,8.169015884399414,4.079719543457031,-1.1827356815338135
1714858337619673600,1.960673583984375,8.35097599029541,4.098873138427734,-1.048660397529602
1714858337629623000,1.970623046875,8.810662269592285,4.242525577545166,-0.9193734526634216
1714858337639572500,1.980572509765625,9.222464561462402,4.3861775398254395,-0.6847416758537292
1714858337649522200,1.990522216796875,9.131484985351562,4.414907932281494,-0.08619125932455063
1714858337659471600,2.0004716796875,8.944737434387207,4.256890773773193,0.5554547905921936
1714858337669421000,2.010421142578125,9.308655738830566,4.228160381317139,1.0534487962722778
1714858337679370500,2.02037060546875,9.725247383117676,4.261679172515869,1.3886369466781616
1714858337689320000,2.03031982421875,10.1753568649292,4.228160381317139,1.3742717504501343
1714858337699269400,2.040269287109375,10.654197692871094,4.156333923339844,1.2401964664459229
1714858337709219000,2.050218994140625,10.668562889099121,4.180276393890381,1.4748282432556152
1714858337719168500,2.06016845703125,10.884040832519531,4.089296340942383,1.359906554222107
1714858337729118000,2.070117919921875,11.425130844116211,3.9839515686035156,1.235408067703247
1714858337739067400,2.0800673828125,11.583148002624512,3.8115692138671875,1.647210717201233
1714858337749016800,2.090016845703125,11.511322021484375,3.8163576126098633,2.22660756111145
1714858337758966300,2.09996630859375,11.559206008911133,3.974374771118164,2.408566951751709
1714858337768915700,2.109915771484375,11.334151268005371,4.194641590118408,2.0925323963165283
1714858337778865400,2.119865478515625,10.682928085327148,4.290409564971924,0.9002198576927185
1714858337788814800,2.12981494140625,10.137049674987793,4.299986362457275,-0.7709329724311829
1714858337798764300,2.139764404296875,9.50498104095459,4.323928356170654,-1.4939818382263184
1714858337808713700,2.149713623046875,8.681375503540039,4.568136692047119,-1.4748282432556152
1714858337818663200,2.1596630859375,7.4986395835876465,4.644751071929932,-1.115697979927063
1714858337828612600,2.169612548828125,6.976703643798828,4.568136692047119,-0.8236053586006165
1714858337838562300,2.179562255859375,7.316680431365967,4.620809078216553,-0.7086837291717529
1714858337848511700,2.18951171875,7.4555439949035645,4.888959884643555,-0.5602431893348694
1714858337858461200,2.199461181640625,7.805097579956055,4.955997467041016,-0.9193734526634216
1714858337868410600,2.20941064453125,8.89685344696045,4.630385875701904,-2.365471363067627
1714858337878360000,2.219360107421875,9.121908187866211,4.711789131164551,-2.983175277709961
1714858337888309500,2.2293095703125,7.905653953552246,4.3861775398254395,-3.1268274784088135
1714858337898259000,2.239259033203125,6.4595561027526855,4.410119533538818,-2.0207061767578125
1714858337908208600,2.249208740234375,5.224148273468018,4.955997467041016,-0.6320692300796509
1714858337918158000,2.259157958984375,5.2049946784973145,4.802768707275391,-0.2585737705230713
1714858337928107500,2.269107421875,6.607996463775635,4.41969633102417,-0.9002198576927185
1714858337938057000,2.279056884765625,8.020575523376465,4.098873138427734,-1.436521053314209
1714858337948006400,2.28900634765625,8.829815864562988,3.993528366088867,-1.3024457693099976
1714858337957955800,2.298955810546875,9.14585018157959,4.548983097076416,-0.8427590131759644
1714858337967905300,2.3089052734375,8.911218643188477,4.73573112487793,-1.1635819673538208
1714858337977855000,2.31885498046875,8.437167167663574,4.654327869415283,-1.4652514457702637
1714858337987804400,2.328804443359375,7.848193168640137,4.932055473327637,-1.522712230682373
1714858337997753900,2.33875390625,6.8043212890625,5.185841083526611,-1.4987702369689941
1714858338007703300,2.348703369140625,5.339069843292236,5.243301868438721,-1.359906554222107
1714858338017652700,2.35865283203125,4.055777549743652,5.353435039520264,-0.9959878921508789
1714858338027602200,2.368602294921875,3.600879430770874,5.286397457122803,-1.6089035272598267
1714858338037551900,2.3785517578125,3.97916316986084,5.257667064666748,-1.9584569931030273
1714858338047501300,2.388501220703125,4.414907932281494,5.415684223175049,-1.3407529592514038
1714858338057450800,2.39845068359375,4.683058738708496,5.39174222946167,-0.507570743560791
1714858338067400200,2.408400146484375,4.994304656982422,5.185841083526611,0.07182604819536209
1714858338077349600,2.418349609375,5.8657941818237305,5.032611846923828,0.11971008777618408
1714858338087299000,2.428299072265625,6.967126846313477,4.989516258239746,0.023942016065120697
1714858338097248500,2.43824853515625,7.848193168640137,4.917690277099609,-0.40701428055763245
1714858338107198200,2.4481982421875,8.580819129943848,5.018246650695801,-1.0199298858642578
1714858338117147600,2.458147705078125,9.23682975769043,5.20978307723999,-1.6855180263519287
1714858338127097000,2.46809716796875,9.576807022094727,5.348646640777588,-1.4269442558288574
1714858338137046500,2.478046630859375,9.394847869873047,5.0469770431518555,-0.727837324142456
1714858338146996000,2.487995849609375,8.556877136230469,4.525041103363037,-0.5650315880775452
1714858338156945400,2.4979453125,7.2783732414245605,4.51067590713501,-0.028730420395731926
1714858338166895000,2.50789501953125,6.464344501495361,4.898536682128906,0.7757213711738586
1714858338176844500,2.517844482421875,6.698976516723633,5.128379821777344,0.7326257228851318
1714858338186794000,2.5277939453125,7.005434036254883,5.161899089813232,0.05267243832349777
1714858338196743400,2.537743408203125,7.043741226196289,5.382165431976318,-0.272938996553421
1714858338206692900,2.54769287109375,7.129932880401611,5.286397457122803,-0.31124621629714966
1714858338216642300,2.557642333984375,8.001421928405762,5.070919036865234,-0.35913026332855225
1714858338226591700,2.567591796875,9.279925346374512,5.023035049438477,-0.569819986820221
1714858338236541400,2.57754150390625,10.24239444732666,5.147533416748047,-0.49320554733276367
1714858338246491000,2.587490966796875,10.424354553222656,5.415684223175049,0.014365210197865963
1714858338256440300,2.5974404296875,10.342951774597168,5.348646640777588,0.5410895943641663
1714858338266389800,2.6073896484375,10.199298858642578,5.406107425689697,1.192312479019165
1714858338276339200,2.617339111328125,10.395624160766602,5.74129581451416,1.824381709098816
1714858338286288600,2.62728857421875,10.572794914245605,6.04775333404541,2.0877439975738525
1714858338296238300,2.63723828125,10.261548042297363,6.200982570648193,1.7573440074920654
1714858338306187800,2.647187744140625,9.078812599182129,6.440402507781982,1.216254472732544
1714858338316137200,2.65713720703125,7.608773231506348,6.7708024978637695,0.9433154463768005
1714858338326086700,2.667086669921875,8.729259490966797,7.005434036254883,0.5793967843055725
1714858338336036000,2.6770361328125,9.586383819580078,6.722918510437012,-0.3495534360408783
1714858338345985500,2.686985595703125,9.888052940368652,7.546523571014404,0.7709329724311829
1714858338355935000,2.69693505859375,10.295066833496094,8.145073890686035,1.7717092037200928
1714858338365884700,2.706884765625,11.099518775939941,7.943961143493652,2.2888567447662354
1714858338375834000,2.716834228515625,12.469002723693848,7.091625213623047,2.078166961669922
1714858338385783600,2.726783447265625,13.388376235961914,7.062894821166992,2.542642116546631
1714858338395733000,2.73673291015625,13.330915451049805,7.1921820640563965,2.7054479122161865
1714858338405682400,2.746682373046875,12.569559097290039,7.058106422424316,2.2361843585968018
1714858338415632000,2.7566318359375,11.985373497009277,7.000645637512207,1.53707754611969
1714858338425581600,2.76658154296875,11.69806957244873,7.072471618652344,0.7709329724311829
1714858338435531000,2.776531005859375,11.401188850402832,7.134721279144287,-0.05746084079146385
1714858338445480400,2.78648046875,10.596736907958984,6.981492042541504,-0.7948749661445618
1714858338455430000,2.796429931640625,10.127472877502441,6.157886981964111,-1.8818424940109253
1714858338465379300,2.80637939453125,9.916783332824707,6.430825710296631,-1.0199298858642578
1714858338475328800,2.816328857421875,9.002198219299316,6.914454460144043,0.181959331035614
1714858338485278200,2.8262783203125,7.575253963470459,6.675034523010254,0.727837324142456
1714858338495228000,2.836227783203125,6.833051681518555,6.335057735443115,0.8140285611152649
1714858338505177300,2.84617724609375,7.0772600173950195,6.01423454284668,0.4118026793003082
1714858338515126800,2.856126708984375,8.322244644165039,5.578489780426025,-0.004788403399288654
1714858338525076200,2.866076171875,9.974244117736816,5.286397457122803,0.10534487664699554
1714858338535025700,2.876025634765625,10.63504409790039,5.137956619262695,0.6177040338516235
1714858338544975000,2.88597509765625,10.357316970825195,4.908113479614258,0.9433154463768005
1714858338554924800,2.8959248046875,9.706093788146973,4.6255974769592285,1.0534487962722778
1714858338564874200,2.905874267578125,9.217676162719727,4.520252704620361,0.6177040338516235
1714858338574823700,2.91582373046875,9.050082206726074,4.592078685760498,-0.10534487664699554
1714858338584773400,2.9257734375,8.887276649475098,4.855441093444824,-0.7757213711738586
1714858338594722800,2.935722900390625,8.580819129943848,4.927267074584961,-1.091755986213684
1714858338604672500,2.945672607421875,8.221688270568848,4.754884719848633,-1.1109095811843872
1714858338614622000,2.9556220703125,7.671022415161133,4.649539470672607,-0.9624691009521484
1714858338624571400,2.9655712890625,7.0772600173950195,4.726154327392578,-0.8906430602073669
1714858338634521000,2.97552099609375,6.6127848625183105,4.802768707275391,-0.8858546018600464
1714858338644470500,2.985470458984375,6.27280855178833,4.912901878356934,-0.9816226959228516
1714858338654420000,2.995419921875,6.196194171905518,5.123591423034668,-1.1827356815338135
1714858338664369700,3.00536962890625,6.8378400802612305,5.281609058380127,-1.6136919260025024
1714858338674319000,3.015319091796875,7.690176010131836,5.157110691070557,-1.723825216293335
1714858338684268500,3.0252685546875,8.44195556640625,4.98472785949707,-1.2689268589019775
1714858338694218200,3.03521826171875,8.757989883422852,4.965574264526367,-1.0678139925003052
1714858338704167700,3.045167724609375,8.87291145324707,5.085284233093262,-0.9193734526634216
1714858338714117000,3.0551171875,8.96389102935791,5.109226226806641,-0.7038952708244324
1714858338724066800,3.06506689453125,9.184157371520996,5.109226226806641,-0.6033388376235962
1714858338734016300,3.075016357421875,9.461885452270508,5.219359874725342,-0.5793967843055725
1714858338743965700,3.084965576171875,9.658209800720215,5.544970989227295,-0.4213795065879822
1714858338753915400,3.094915283203125,9.758766174316406,5.875370979309082,-0.047884032130241394
1714858338763864800,3.10486474609375,9.500192642211914,6.033388137817383,0.1628057211637497
1714858338773814500,3.114814453125,9.069235801696777,6.133944988250732,-0.4405331015586853
1714858338783764000,3.124763916015625,8.513781547546387,6.071695327758789,-1.7286136150360107
1714858338793713400,3.13471337890625,8.073247909545898,6.095637321472168,-2.75812029838562
1714858338803663000,3.1446630859375,7.891288757324219,6.536170482635498,-3.026270866394043
1714858338813612500,3.154612548828125,7.9631147384643555,6.823474884033203,-2.6192567348480225
1714858338823562000,3.16456201171875,8.178592681884766,6.651092529296875,-1.9297266006469727
1714858338833511700,3.17451171875,8.327033042907715,6.368576526641846,-1.235408067703247
1714858338843461000,3.184461181640625,8.092401504516602,6.229712963104248,-0.5889736413955688
1714858338853410600,3.19441064453125,7.910442352294922,6.143521785736084,-0.35913026332855225
1714858338863360300,3.2043603515625,7.953537940979004,6.124367713928223,-0.7565677165985107
1714858338873309700,3.214309814453125,8.370129585266113,6.028599739074707,-1.50355863571167
1714858338883259100,3.224259033203125,9.193734169006348,5.693411827087402,-2.4420857429504395
1714858338893208600,3.23420849609375,9.634267807006836,5.458779811859131,-2.7916390895843506
1714858338903158000,3.244157958984375,9.394847869873047,5.463568210601807,-2.3127987384796143
1714858338913107500,3.254107421875,8.465897560119629,5.434837818145752,-1.6328455209732056
1714858338923057000,3.264056884765625,7.709329605102539,5.171475887298584,-1.766920804977417
1714858338933006600,3.274006591796875,7.522581577301025,4.912901878356934,-2.2601263523101807
1714858338942956000,3.2839560546875,7.398083209991455,4.687847137451172,-2.3032219409942627
1714858338952905500,3.293905517578125,7.173028469085693,4.486733913421631,-1.944091796875
1714858338962855000,3.30385498046875,7.058106422424316,4.3861775398254395,-1.5466543436050415
1714858338972804400,3.313804443359375,7.441178798675537,4.0749311447143555,-1.3503297567367554
1714858338982753800,3.32375390625,8.255207061767578,3.754108190536499,-1.139639973640442
1714858338992703500,3.333703369140625,8.954314231872559,3.8115692138671875,-0.7661445140838623
1714858339002653000,3.34365283203125,9.442731857299805,3.97916316986084,-0.6033388376235962
1714858339012602400,3.353602294921875,10.007762908935547,3.950432777404785,-0.9768342971801758
1714858339022551800,3.3635517578125,10.879252433776855,3.801992416381836,-2.231395959854126
1714858339032501200,3.373501220703125,10.960655212402344,3.9169139862060547,-2.7916390895843506
1714858339042450700,3.38345068359375,10.639832496643066,3.9695863723754883,-2.403778553009033
1714858339052400000,3.393400146484375,9.773131370544434,3.974374771118164,-1.6041151285171509
1714858339062349800,3.403349853515625,8.820239067077637,4.003105163574219,-1.0295066833496094
1714858339072299300,3.41329931640625,8.24084186553955,4.108449935913086,-0.7852981686592102
1714858339082248700,3.423248779296875,8.274360656738281,4.261679172515869,-0.8140285611152649
1714858339092198100,3.4331982421875,8.355764389038086,4.525041103363037,-0.8762778043746948
1714858339102147600,3.443147705078125,8.130708694458008,4.630385875701904,-1.0247182846069336
1714858339112097000,3.453096923828125,7.733271598815918,4.663905143737793,-1.173158884048462
1714858339122046700,3.463046630859375,7.661445617675781,4.750096321105957,-1.2880805730819702
1714858339131996200,3.47299609375,8.087613105773926,4.726154327392578,-1.5897499322891235
1714858339141945600,3.482945556640625,8.62391471862793,4.6255974769592285,-1.6950948238372803
1714858339151895000,3.49289501953125,9.074024200439453,4.611232280731201,-1.647210717201233
1714858339161844500,3.502844482421875,9.38048267364502,4.630385875701904,-1.5322890281677246
1714858339171794000,3.5127939453125,9.59596061706543,4.611232280731201,-1.4508862495422363
1714858339181743400,3.522743408203125,9.763554573059082,4.553771495819092,-1.2976573705673218
1714858339191693000,3.532693115234375,9.888052940368652,4.477157115936279,-1.1635819673538208
1714858339201642500,3.542642578125,9.734824180603027,4.443638324737549,-1.1204863786697388
1714858339211592000,3.552592041015625,9.437943458557129,4.505887508392334,-1.0342950820922852
1714858339221541400,3.562541259765625,9.040505409240723,4.587290287017822,-0.9481038451194763
1714858339231490800,3.57249072265625,8.604761123657227,4.659116744995117,-0.8667010068893433
1714858339241440300,3.582440185546875,8.08282470703125,4.76924991607666,-0.6751648783683777
1714858339251390000,3.592389892578125,7.771578788757324,4.793191909790039,-0.47884035110473633
1714858339261339400,3.60233935546875,8.015787124633789,4.888959884643555,-0.5219359993934631
1714858339271288800,3.612288818359375,8.35097599029541,5.008669853210449,-0.7134721279144287
1714858339281238300,3.62223828125,8.638279914855957,5.018246650695801,-0.8188169598579407
1714858339291187700,3.632187744140625,8.681375503540039,5.008669853210449,-0.7422025203704834
1714858339301137200,3.64213720703125,8.667010307312012,4.955997467041016,-0.7565677165985107
1714858339311086600,3.652086669921875,8.743624687194824,4.932055473327637,-0.7805097699165344
1714858339321036300,3.662036376953125,8.858546257019043,4.932055473327637,-0.8379706144332886
1714858339330985700,3.67198583984375,8.954314231872559,4.9368438720703125,-0.8619126081466675
1714858339340935200,3.68193505859375,8.949525833129883,4.908113479614258,-0.7757213711738586
1714858339350884600,3.691884521484375,8.801085472106934,4.927267074584961,-0.6129156351089478
1714858339360834000,3.701833984375,8.667010307312012,4.888959884643555,-0.5315127968788147
1714858339370783500,3.711783447265625,8.767566680908203,4.802768707275391,-0.38307225704193115
1714858339380733200,3.721733154296875,8.968679428100586,4.754884719848633,-0.24420857429504395
1714858339390682600,3.7316826171875,9.040505409240723,4.721365928649902,-0.26336219906806946
1714858339400632000,3.741632080078125,9.006986618041992,4.692635536193848,-0.3447650372982025
1714858339410581500,3.75158154296875,8.99740982055664,4.711789131164551,-0.4357447028160095
1714858339420531000,3.761531005859375,9.011775016784668,4.750096321105957,-0.3974374830722809
1714858339430480400,3.77148046875,9.006986618041992,4.759673118591309,-0.3687070608139038
1714858339440429800,3.781429931640625,8.983044624328613,4.73573112487793,-0.37828385829925537
1714858339450379500,3.791379638671875,9.05487060546875,4.721365928649902,-0.35913026332855225
1714858339460329000,3.801328857421875,9.126696586608887,4.702212333679199,-0.363918662071228
1714858339470278400,3.8112783203125,9.141061782836914,4.726154327392578,-0.3926490843296051
1714858339480227800,3.821227783203125,9.251194953918457,4.726154327392578,-0.4213795065879822
1714858339490177300,3.83117724609375,9.275136947631836,4.73573112487793,-0.45010992884635925
1714858339500126700,3.841126708984375,9.289502143859863,4.692635536193848,-0.47405192255973816
1714858339510076400,3.851076416015625,9.32302188873291,4.697423934936523,-0.4405331015586853
1714858339520025900,3.86102587890625,9.255983352661133,4.702212333679199,-0.42616790533065796
1714858339529975300,3.870975341796875,9.026140213012695,4.692635536193848,-0.4357447028160095
1714858339539924700,3.8809248046875,8.820239067077637,4.702212333679199,-0.4596867263317108
1714858339549874200,3.890874267578125,8.719682693481445,4.764461517333984,-0.5027823448181152
1714858339559823600,3.90082373046875,8.585607528686523,4.817133903503418,-0.5410895943641663
1714858339569773000,3.91077294921875,8.537723541259766,4.821922302246094,-0.6033388376235962
1714858339579722800,3.92072265625,8.580819129943848,4.836287498474121,-0.689530074596405
1714858339589672200,3.930672119140625,8.69095230102539,4.797980308532715,-0.8427590131759644
1714858339599621600,3.94062158203125,8.887276649475098,4.817133903503418,-1.039083480834961
1714858339609571000,3.950571044921875,8.987833023071289,4.8602294921875,-1.0103530883789062
1714858339619520500,3.9605205078125,8.939949035644531,4.845864295959473,-0.8140285611152649
1714858339629470000,3.970469970703125,8.882488250732422,4.8267107009887695,-0.569819986820221
1714858339639419600,3.980419677734375,8.78193187713623,4.8267107009887695,-0.3495534360408783
1714858339649369000,3.990369140625,8.7484130859375,4.845864295959473,-0.2537853717803955
1714858339659318500,4.000318603515625,8.762778282165527,4.855441093444824,-0.31603461503982544
1714858339669268000,4.01026806640625,8.743624687194824,4.869806289672852,-0.44532153010368347
1714858339679217400,4.020217529296875,8.700529098510742,4.879383087158203,-0.49799394607543945
1714858339689166800,4.030166748046875,8.65743350982666,4.888959884643555,-0.545877993106842
1714858339699116300,4.0401162109375,8.638279914855957,4.879383087158203,-0.6416460275650024
1714858339709066000,4.05006591796875,8.724471092224121,4.869806289672852,-0.6655880808830261
1714858339719015400,4.060015380859375,8.834604263305664,4.845864295959473,-0.5554547905921936
1714858339728964900,4.06996484375,8.939949035644531,4.778826713562012,-0.31124621629714966
1714858339738914300,4.079914306640625,9.016563415527344,4.730942726135254,-0.004788403399288654
1714858339748864000,4.089864013671875,9.064447402954102,4.721365928649902,0.15322890877723694
1714858339758813400,4.0998134765625,9.14585018157959,4.778826713562012,0.13407529890537262
1714858339768763000,4.109762939453125,9.246406555175781,4.807557106018066,0.014365210197865963
1714858339778712600,4.119712646484375,9.193734169006348,4.76924991607666,-0.12449848651885986
1714858339788662000,4.129662109375,9.102754592895508,4.745307922363281,-0.2106897532939911
1714858339798611500,4.139611572265625,9.026140213012695,4.750096321105957,-0.2968810200691223
1714858339808561200,4.14956103515625,9.045293807983398,4.778826713562012,-0.5554547905921936
1714858339818510600,4.159510498046875,9.107542991638184,4.793191909790039,-0.6991068720817566
1714858339828460000,4.1694599609375,9.078812599182129,4.764461517333984,-0.6033388376235962
1714858339838409700,4.17940966796875,9.011775016784668,4.730942726135254,-0.37828385829925537
1714858339848359200,4.189359130859375,9.016563415527344,4.716577529907227,-0.12928688526153564
1714858339858308900,4.199308837890625,9.074024200439453,4.711789131164551,-0.11013327538967133
1714858339868258300,4.20925830078125,9.117119789123535,4.711789131164551,-0.26336219906806946
1714858339878207700,4.219207763671875,9.165003776550293,4.721365928649902,-0.42616790533065796
1714858339888157400,4.229157470703125,9.2033109664917,4.754884719848633,-0.5027823448181152
1714858339898107000,4.23910693359375,9.141061782836914,4.759673118591309,-0.4692635238170624
1714858339908056300,4.249056396484375,9.097966194152832,4.745307922363281,-0.3495534360408783
1714858339918006000,4.259006103515625,9.107542991638184,4.745307922363281,-0.3256114423274994
1714858339927955500,4.26895556640625,9.102754592895508,4.750096321105957,-0.4165911078453064
1714858339937905000,4.27890478515625,9.074024200439453,4.754884719848633,-0.5171475410461426
1714858339947854600,4.2888544921875,9.011775016784668,4.745307922363281,-0.5841852426528931
1714858339957804000,4.298803955078125,8.87291145324707,4.730942726135254,-0.6033388376235962
1714858339967753500,4.30875341796875,8.786720275878906,4.726154327392578,-0.5650315880775452
1714858339977703200,4.318703125,8.777143478393555,4.7836151123046875,-0.569819986820221
1714858339987652600,4.328652587890625,8.858546257019043,4.817133903503418,-0.6416460275650024
1714858339997602300,4.338602294921875,8.944737434387207,4.841075897216797,-0.6751648783683777
1714858340007551700,4.3485517578125,8.99740982055664,4.836287498474121,-0.6655880808830261
1714858340017501200,4.358501220703125,9.045293807983398,4.8267107009887695,-0.5889736413955688
1714858340027451000,4.368450927734375,9.045293807983398,4.807557106018066,-0.5267243981361389
1714858340037400300,4.378400390625,9.026140213012695,4.797980308532715,-0.507570743560791
1714858340047349800,4.388349853515625,8.973467826843262,4.797980308532715,-0.5267243981361389
1714858340057299200,4.39829931640625,8.916007041931152,4.797980308532715,-0.5985504388809204
1714858340067248600,4.40824853515625,8.834604263305664,4.8267107009887695,-0.6512228846549988
1714858340077198300,4.4181982421875,8.757989883422852,4.812345504760742,-0.6751648783683777
1714858340087147800,4.428147705078125,8.80587387084961,4.788403511047363,-0.6607996821403503
1714858340097097200,4.43809716796875,8.911218643188477,4.7836151123046875,-0.6177040338516235
1714858340107046700,4.448046630859375,9.045293807983398,4.7836151123046875,-0.5937620401382446
1714858340116996000,4.45799609375,9.150638580322266,4.778826713562012,-0.5841852426528931
1714858340126945500,4.467945556640625,9.23682975769043,4.7405195236206055,-0.5746083855628967
1714858340136895000,4.47789501953125,9.198522567749023,4.711789131164551,-0.5267243981361389
1714858340146844700,4.4878447265625,9.121908187866211,4.716577529907227,-0.47405192255973816
1714858340156794000,4.497794189453125,9.006986618041992,4.73573112487793,-0.40701428055763245
1714858340166743600,4.50774365234375,8.858546257019043,4.76924991607666,-0.42616790533065796
1714858340176693000,4.51769287109375,8.801085472106934,4.7836151123046875,-0.49320554733276367
1714858340186642400,4.527642333984375,8.887276649475098,4.812345504760742,-0.5793967843055725
1714858340196591900,4.537591796875,9.002198219299316,4.821922302246094,-0.6751648783683777
1714858340206541600,4.54754150390625,9.030928611755371,4.8267107009887695,-0.8092401623725891
1714858340216491000,4.557490966796875,9.040505409240723,4.807557106018066,-0.8427590131759644
1714858340226440400,4.5674404296875,8.96389102935791,4.788403511047363,-0.6607996821403503
1714858340236390000,4.577389892578125,8.89685344696045,4.7836151123046875,-0.45010992884635925
1714858340246339300,4.58733935546875,8.882488250732422,4.764461517333984,-0.29209262132644653
1714858340256288800,4.597288818359375,8.925583839416504,4.76924991607666,-0.26336219906806946
1714858340266238200,4.60723828125,9.002198219299316,4.793191909790039,-0.3256114423274994
1714858340276188000,4.61718798828125,9.050082206726074,4.793191909790039,-0.4405331015586853
1714858340286137300,4.627137451171875,9.006986618041992,4.778826713562012,-0.5746083855628967
1714858340296086800,4.637086669921875,8.901641845703125,4.759673118591309,-0.6847416758537292
1714858340306036200,4.6470361328125,8.887276649475098,4.774038314819336,-0.6416460275650024
1714858340315985700,4.656985595703125,8.882488250732422,4.774038314819336,-0.5506663918495178
1714858340325935000,4.66693505859375,8.920795440673828,4.759673118591309,-0.5219359993934631
1714858340335884800,4.676884765625,8.978256225585938,4.750096321105957,-0.5171475410461426
1714858340345834200,4.686834228515625,9.016563415527344,4.750096321105957,-0.5506663918495178
1714858340355783700,4.69678369140625,9.064447402954102,4.754884719848633,-0.5746083855628967
1714858340365733000,4.706733154296875,9.141061782836914,4.7405195236206055,-0.569819986820221
1714858340375682600,4.7166826171875,9.2033109664917,4.716577529907227,-0.507570743560791
1714858340385632000,4.726632080078125,9.193734169006348,4.711789131164551,-0.45489832758903503
1714858340395581400,4.73658154296875,9.107542991638184,4.707000732421875,-0.47884035110473633
1714858340405531100,4.74653125,9.02135181427002,4.716577529907227,-0.5793967843055725
1714858340415480600,4.75648046875,8.978256225585938,4.726154327392578,-0.7086837291717529
1714858340425430000,4.766429931640625,8.892065048217773,4.73573112487793,-0.790086567401886
1714858340435379500,4.77637939453125,8.829815864562988,4.750096321105957,-0.7565677165985107
1714858340445329000,4.786328857421875,8.9064302444458,4.76924991607666,-0.6033388376235962
1714858340455278300,4.7962783203125,9.016563415527344,4.778826713562012,-0.4884171485900879
1714858340465228000,4.80622802734375,9.093177795410156,4.76924991607666,-0.5650315880775452
1714858340475177500,4.816177490234375,9.141061782836914,4.764461517333984,-0.6943184733390808
1714858340485127000,4.826126953125,9.11233139038086,4.764461517333984,-0.689530074596405
1714858340495076400,4.836076416015625,9.026140213012695,4.745307922363281,-0.5889736413955688
1714858340505025800,4.84602587890625,9.006986618041992,4.726154327392578,-0.49320554733276367
1714858340514975200,4.855975341796875,9.030928611755371,4.721365928649902,-0.4644751250743866
1714858340524924700,4.865924560546875,9.030928611755371,4.716577529907227,-0.5123591423034668
1714858340534874400,4.875874267578125,9.002198219299316,4.692635536193848,-0.5841852426528931
1714858340544823800,4.88582373046875,8.959102630615234,4.67827033996582,-0.5889736413955688
1714858340554773200,4.895773193359375,8.89685344696045,4.73573112487793,-0.5937620401382446
1714858340564722700,4.90572265625,8.868123054504395,4.7405195236206055,-0.6224924325942993
1714858340574672100,4.915672119140625,8.887276649475098,4.716577529907227,-0.5650315880775452
1714858340584621600,4.92562158203125,8.916007041931152,4.73573112487793,-0.5123591423034668
1714858340594571300,4.9355712890625,9.030928611755371,4.716577529907227,-0.507570743560791
1714858340604520700,4.945520751953125,9.14585018157959,4.707000732421875,-0.5171475410461426
1714858340614470100,4.95547021484375,9.184157371520996,4.721365928649902,-0.507570743560791
1714858340624419600,4.965419677734375,9.14585018157959,4.711789131164551,-0.47884035110473633
1714858340634369000,4.975369140625,9.026140213012695,4.702212333679199,-0.5123591423034668
1714858340644318500,4.985318359375,8.944737434387207,4.707000732421875,-0.5602431893348694
1714858340654268000,4.995267822265625,8.939949035644531,4.73573112487793,-0.5746083855628967
1714858340664217600,5.005217529296875,8.935160636901855,4.745307922363281,-0.5410895943641663
1714858340674167000,5.0151669921875,8.983044624328613,4.730942726135254,-0.5267243981361389
1714858340684116500,5.025116455078125,9.08838939666748,4.726154327392578,-0.5410895943641663
1714858340694066000,5.03506591796875,9.11233139038086,4.702212333679199,-0.49799394607543945
1714858340704015400,5.045015380859375,9.040505409240723,4.687847137451172,-0.507570743560791
1714858340713964800,5.05496484375,8.983044624328613,4.702212333679199,-0.5554547905921936
1714858340723914200,5.064914306640625,9.002198219299316,4.730942726135254,-0.569819986820221
1714858340733864000,5.074864013671875,9.002198219299316,4.726154327392578,-0.5602431893348694
1714858340743813400,5.0848134765625,9.006986618041992,4.716577529907227,-0.5506663918495178
1714858340753762800,5.0947626953125,9.030928611755371,4.707000732421875,-0.5315127968788147
1714858340763712300,5.104712158203125,9.02135181427002,4.702212333679199,-0.5650315880775452
1714858340773661700,5.11466162109375,8.96389102935791,4.716577529907227,-0.5985504388809204
1714858340783611100,5.124611083984375,8.925583839416504,4.754884719848633,-0.6224924325942993
1714858340793560800,5.134560791015625,8.925583839416504,4.788403511047363,-0.6368576288223267
1714858340803510300,5.14451025390625,8.916007041931152,4.788403511047363,-0.6368576288223267
1714858340813459700,5.154459716796875,8.959102630615234,4.802768707275391,-0.6560112833976746
1714858340823409200,5.1644091796875,9.030928611755371,4.802768707275391,-0.6655880808830261
1714858340833358600,5.174358642578125,9.074024200439453,4.812345504760742,-0.6943184733390808
1714858340843308000,5.18430810546875,9.074024200439453,4.807557106018066,-0.7374141216278076
1714858340853257500,5.194257568359375,9.026140213012695,4.802768707275391,-0.7134721279144287
1714858340863207200,5.204207275390625,8.939949035644531,4.774038314819336,-0.6560112833976746
1714858340873156600,5.214156494140625,8.939949035644531,4.7836151123046875,-0.6177040338516235
1714858340883106000,5.22410595703125,8.944737434387207,4.793191909790039,-0.6033388376235962
1714858340893055500,5.234055419921875,8.99740982055664,4.797980308532715,-0.5889736413955688
1714858340903005000,5.2440048828125,9.05487060546875,4.793191909790039,-0.5937620401382446
1714858340912954400,5.253954345703125,9.064447402954102,4.764461517333984,-0.6703764796257019
1714858340922904000,5.263904052734375,9.050082206726074,4.778826713562012,-0.7469909191131592
1714858340932853500,5.273853515625,9.011775016784668,4.788403511047363,-0.727837324142456
1714858340942803000,5.283802978515625,8.973467826843262,4.812345504760742,-0.6703764796257019
1714858340952752400,5.29375244140625,8.911218643188477,4.841075897216797,-0.6655880808830261
1714858340962701800,5.303701904296875,8.83939266204834,4.8267107009887695,-0.6847416758537292
1714858340972651300,5.3136513671875,8.858546257019043,4.817133903503418,-0.6655880808830261
1714858340982600700,5.3236005859375,8.916007041931152,4.807557106018066,-0.6272808313369751
1714858340992550400,5.33355029296875,8.973467826843262,4.793191909790039,-0.6703764796257019
1714858341002499800,5.343499755859375,9.064447402954102,4.774038314819336,-0.7613561153411865
1714858341012449300,5.35344921875,9.136273384094238,4.76924991607666,-0.7661445140838623
1714858341022398700,5.363398681640625,9.155426979064941,4.7836151123046875,-0.7134721279144287
1714858341032348200,5.37334814453125,9.11233139038086,4.802768707275391,-0.6224924325942993
1714858341042297600,5.383297607421875,9.030928611755371,4.797980308532715,-0.6033388376235962
1714858341052247300,5.393247314453125,8.949525833129883,4.788403511047363,-0.646434485912323
1714858341062196700,5.40319677734375,8.863334655761719,4.7836151123046875,-0.6943184733390808
1714858341072146200,5.413146240234375,8.810662269592285,4.778826713562012,-0.7134721279144287
1714858341082095600,5.423095703125,8.815450668334961,4.759673118591309,-0.6560112833976746
1714858341092045000,5.433045166015625,8.87291145324707,4.7405195236206055,-0.5889736413955688
1714858341101994500,5.442994384765625,8.959102630615234,4.707000732421875,-0.5267243981361389
1714858341111944000,5.45294384765625,9.074024200439453,4.687847137451172,-0.5123591423034668
1714858341121893600,5.4628935546875,9.136273384094238,4.67827033996582,-0.5171475410461426
1714858341131843000,5.472843017578125,9.121908187866211,4.687847137451172,-0.49799394607543945
1714858341141792500,5.48279248046875,9.078812599182129,4.692635536193848,-0.4692635238170624
1714858341151742000,5.492741943359375,9.050082206726074,4.707000732421875,-0.45010992884635925
1714858341161691400,5.50269140625,9.026140213012695,4.721365928649902,-0.45010992884635925
1714858341171640800,5.512640869140625,9.02135181427002,4.730942726135254,-0.4692635238170624
1714858341181590500,5.522590576171875,9.011775016784668,4.716577529907227,-0.47884035110473633
1714858341191540000,5.5325400390625,8.987833023071289,4.707000732421875,-0.4596867263317108
1714858341201489400,5.542489501953125,8.973467826843262,4.702212333679199,-0.42616790533065796
1714858341211438800,5.55243896484375,8.992621421813965,4.711789131164551,-0.3974374830722809
1714858341221388300,5.56238818359375,8.99740982055664,4.721365928649902,-0.3926490843296051
1714858341231337700,5.572337646484375,8.954314231872559,4.721365928649902,-0.3926490843296051
1714858341241287200,5.582287109375,8.983044624328613,4.745307922363281,-0.40222588181495667
1714858341251236900,5.59223681640625,9.002198219299316,4.778826713562012,-0.4644751250743866
1714858341261186300,5.602186279296875,8.96389102935791,4.797980308532715,-0.5410895943641663
1714858341271135700,5.6121357421875,8.9064302444458,4.817133903503418,-0.6033388376235962
1714858341281085200,5.622085205078125,8.834604263305664,4.831499099731445,-0.6751648783683777
1714858341291034600,5.63203466796875,8.825027465820312,4.836287498474121,-0.7182605266571045
1714858341300984000,5.641984130859375,8.868123054504395,4.836287498474121,-0.6943184733390808
1714858341310933800,5.651933837890625,8.89685344696045,4.850652694702148,-0.6272808313369751
1714858341320883200,5.66188330078125,8.89685344696045,4.855441093444824,-0.5315127968788147
1714858341330832600,5.67183251953125,8.863334655761719,4.869806289672852,-0.47884035110473633
1714858341340782000,5.681781982421875,8.882488250732422,4.9368438720703125,-0.5985504388809204
1714858341350731500,5.6917314453125,8.916007041931152,4.9368438720703125,-0.7565677165985107
1714858341360681000,5.701680908203125,8.9064302444458,4.8602294921875,-0.9385270476341248
1714858341370630400,5.71163037109375,8.887276649475098,4.841075897216797,-0.9672574996948242
1714858341380580000,5.721580078125,8.853757858276367,4.917690277099609,-0.8762778043746948
1714858341390529500,5.731529541015625,8.791508674621582,4.975151062011719,-0.8236053586006165
1714858341400479000,5.74147900390625,8.719682693481445,4.95120906829834,-0.8475474119186401
1714858341410428400,5.751428466796875,8.604761123657227,5.20978307723999,-0.6512228846549988
1714858341420377900,5.7613779296875,8.633491516113281,5.008669853210449,-0.7565677165985107
1714858341430327300,5.771327392578125,9.117119789123535,4.63517427444458,-1.2401964664459229
1714858341440277000,5.781277099609375,9.452308654785156,4.697423934936523,-1.1635819673538208
1714858341450226400,5.791226318359375,9.442731857299805,4.8602294921875,-0.8475474119186401
1714858341460176000,5.80117578125,9.255983352661133,4.898536682128906,-0.7326257228851318
1714858341470125300,5.811125244140625,9.040505409240723,4.807557106018066,-0.7565677165985107
1714858341480074800,5.82107470703125,8.992621421813965,4.8267107009887695,-0.8619126081466675
1714858341490024200,5.831024169921875,8.968679428100586,4.855441093444824,-0.9193734526634216
1714858341499973600,5.8409736328125,8.93037223815918,4.807557106018066,-0.9624691009521484
1714858341509923300,5.85092333984375,8.89685344696045,4.7836151123046875,-0.8571242094039917
1714858341519872800,5.860872802734375,8.844181060791016,4.817133903503418,-0.7374141216278076
1714858341529822200,5.870822265625,8.825027465820312,4.793191909790039,-0.6320692300796509
1714858341539771600,5.880771728515625,8.844181060791016,4.730942726135254,-0.5841852426528931
1714858341549721000,5.89072119140625,8.848969459533691,4.697423934936523,-0.5410895943641663
1714858341559670500,5.90067041015625,8.87291145324707,4.67827033996582,-0.47884035110473633
1714858341569620000,5.910619873046875,8.96389102935791,4.663905143737793,-0.43095630407333374
1714858341579569700,5.920569580078125,9.026140213012695,4.630385875701904,-0.42616790533065796
1714858341589519000,5.93051904296875,9.064447402954102,4.572925090789795,-0.4405331015586853
1714858341599468500,5.940468505859375,8.99740982055664,4.553771495819092,-0.3495534360408783
1714858341609418000,5.95041796875,8.916007041931152,4.620809078216553,-0.22505496442317963
1714858341619367400,5.960367431640625,8.978256225585938,4.654327869415283,-0.26336219906806946
1714858341629316900,5.97031689453125,9.006986618041992,4.654327869415283,-0.4213795065879822
1714858341639266600,5.9802666015625,9.026140213012695,4.644751071929932,-0.5841852426528931
1714858341649216000,5.990216064453125,9.050082206726074,4.644751071929932,-0.6177040338516235
1714858341659165400,6.00016552734375,9.074024200439453,4.702212333679199,-0.6991068720817566
1714858341669115000,6.010114990234375,9.074024200439453,4.683058738708496,-0.7422025203704834
1714858341679064300,6.020064208984375,9.05487060546875,4.726154327392578,-0.6751648783683777
1714858341689013800,6.030013671875,9.083600997924805,4.812345504760742,-0.7182605266571045
1714858341698963200,6.039963134765625,9.14585018157959,4.797980308532715,-0.8475474119186401
1714858341708913000,6.049912841796875,9.251194953918457,4.817133903503418,-0.9816226959228516
1714858341718862300,6.0598623046875,9.318233489990234,4.869806289672852,-0.9911994934082031
1714858341728811800,6.069811767578125,9.332598686218262,4.917690277099609,-0.9959878921508789
1714858341738761200,6.07976123046875,9.318233489990234,4.927267074584961,-1.0438719987869263
1714858341748710700,6.089710693359375,9.188945770263672,4.912901878356934,-1.1252747774124146
1714858341758660000,6.09966015625,9.026140213012695,4.960785865783691,-1.259350061416626
1714858341768609800,6.10960986328125,8.887276649475098,5.037400245666504,-1.3694833517074585
1714858341778559200,6.119559326171875,8.815450668334961,5.0900726318359375,-1.6089035272598267
1714858341788508400,6.12950830078125,8.643068313598633,5.023035049438477,-1.7573440074920654
1714858341798457900,6.139457763671875,8.394071578979492,4.95120906829834,-1.656787633895874
1714858341808407300,6.1494072265625,8.236053466796875,4.946420669555664,-1.3646949529647827
1714858341818356700,6.159356689453125,8.312667846679688,4.994304656982422,-1.1013327836990356
1714858341828306200,6.16930615234375,8.485051155090332,4.960785865783691,-1.048660397529602
1714858341838255600,6.179255615234375,8.609549522399902,4.8937482833862305,-0.9720458984375
1714858341848205000,6.189205078125,8.719682693481445,4.865017890930176,-0.9481038451194763
1714858341858154500,6.199154541015625,9.002198219299316,4.817133903503418,-1.0438719987869263
1714858341868104000,6.20910400390625,9.208099365234375,4.754884719848633,-1.115697979927063
1714858341878053400,6.219053466796875,9.284713745117188,4.63517427444458,-1.1348515748977661
1714858341888002800,6.2290029296875,9.2033109664917,4.481945514678955,-1.0199298858642578
1714858341897952300,6.2389521484375,9.141061782836914,4.458003520965576,-0.7422025203704834
1714858341907901700,6.248901611328125,9.169792175292969,4.505887508392334,-0.4836287498474121
1714858341917851100,6.25885107421875,9.117119789123535,4.501099109649658,-0.40701428055763245
1714858341927800600,6.268800537109375,8.983044624328613,4.525041103363037,-0.3256114423274994
1714858341937750000,6.27875,8.983044624328613,4.548983097076416,-0.3208230137825012
1714858341947699500,6.288699462890625,9.193734169006348,4.572925090789795,-0.3974374830722809
1714858341957649000,6.29864892578125,9.370905876159668,4.620809078216553,-0.5937620401382446
1714858341967598300,6.308598388671875,9.265560150146484,4.630385875701904,-0.9193734526634216
1714858341977547500,6.318547607421875,8.987833023071289,4.4723687171936035,-1.115697979927063
1714858341987497000,6.3284970703125,8.815450668334961,4.357447147369385,-0.9289502501487732
1714858341997446400,6.3384462890625,8.686163902282715,4.371812343597412,-0.5315127968788147
1714858342007395800,6.348395751953125,8.56645393371582,4.448426723480225,-0.2298433631658554
1714858342017345300,6.35834521484375,8.628703117370605,4.477157115936279,-0.033518824726343155
1714858342027294700,6.368294677734375,8.796297073364258,4.496310710906982,0.019153613597154617
1714858342037244200,6.378244140625,8.901641845703125,4.501099109649658,-0.09576806426048279
1714858342047193600,6.388193603515625,8.935160636901855,4.458003520965576,-0.35913026332855225
1714858342057143000,6.39814306640625,9.016563415527344,4.410119533538818,-0.6751648783683777
1714858342067092500,6.408092529296875,8.848969459533691,4.400542736053467,-0.9241618514060974
1714858342077042000,6.4180419921875,8.65743350982666,4.299986362457275,-1.072602391242981
1714858342086991400,6.427991455078125,8.916007041931152,4.228160381317139,-1.0103530883789062
1714858342096940800,6.43794091796875,9.32302188873291,4.261679172515869,-0.8954314589500427
1714858342106890200,6.44789013671875,9.57201862335205,4.261679172515869,-0.8331822156906128
1714858342116840000,6.45783984375,9.552865028381348,4.32871675491333,-0.6177040338516235
1714858342126789400,6.467789306640625,9.461885452270508,4.400542736053467,-0.45489832758903503
1714858342136738800,6.47773876953125,9.50498104095459,4.371812343597412,-0.4118026793003082
1714858342146688300,6.487688232421875,9.485827445983887,4.32871675491333,-0.3208230137825012
1714858342156637700,6.4976376953125,9.428366661071777,4.405331134796143,-0.2968810200691223
1714858342166587100,6.507587158203125,9.241618156433105,4.491522312164307,-0.3734954595565796
1714858342176536800,6.517536865234375,8.863334655761719,4.630385875701904,-0.2825157940387726
1714858342186486300,6.527486328125,8.365341186523438,4.821922302246094,-0.023942016065120697
1714858342196435700,6.537435791015625,8.121131896972656,5.147533416748047,0.07661445438861847
1714858342206385200,6.54738525390625,8.24084186553955,5.4252610206604,-0.363918662071228
1714858342216334600,6.55733447265625,8.62391471862793,5.497087001800537,-0.9959878921508789
1714858342226284000,6.567283935546875,8.772355079650879,5.439626216888428,-1.1779472827911377
1714858342236233500,6.5772333984375,8.465897560119629,5.2480902671813965,-0.8619126081466675
1714858342246183200,6.58718310546875,7.671022415161133,5.372588634490967,0.19153612852096558
1714858342256132600,6.597132568359375,7.316680431365967,5.20978307723999,0.3734954595565796
1714858342266082000,6.60708203125,7.599195957183838,4.759673118591309,-0.2106897532939911
1714858342276031500,6.617031494140625,7.6566572189331055,4.529829502105713,-0.5650315880775452
1714858342285981000,6.62698095703125,7.570465564727783,4.577713489532471,-0.49320554733276367
1714858342295930400,6.636930419921875,7.805097579956055,5.1810526847839355,-0.3878606855869293
1714858342305880000,6.646880126953125,8.49941635131836,5.726930618286133,-0.3687070608139038
1714858342315829500,6.65682958984375,9.198522567749023,5.363011837005615,-1.0055646896362305
1714858342325779000,6.666779052734375,9.576807022094727,4.941632270812988,-1.3215993642807007
1714858342335728400,6.676728271484375,9.739612579345703,5.061342239379883,-0.8092401623725891
1714858342345677800,6.686677734375,9.979032516479492,4.639962673187256,-0.727837324142456
1714858342355627300,6.696627197265625,9.399636268615723,4.592078685760498,-0.28730419278144836
1714858342365576700,6.70657666015625,8.686163902282715,4.793191909790039,0.12928688526153564
1714858342375526400,6.7165263671875,8.164227485656738,5.04218864440918,0.19632454216480255
1714858342385475800,6.726475830078125,7.939172744750977,5.243301868438721,-0.2777273952960968
1714858342395425300,6.73642529296875,7.781155586242676,5.5114521980285645,-0.5746083855628967
1714858342405374700,6.746374755859375,8.236053466796875,5.463568210601807,-0.9864110946655273
1714858342415324200,6.75632421875,8.633491516113281,5.329493045806885,-1.0965443849563599
1714858342425273600,6.766273681640625,8.983044624328613,5.2480902671813965,-0.6655880808830261
1714858342435223000,6.77622314453125,9.548076629638672,5.238513469696045,-0.29209262132644653
1714858342445172700,6.7861728515625,10.007762908935547,5.123591423034668,-0.1149216815829277
1714858342455122200,6.7961220703125,9.77791976928711,4.836287498474121,-0.33039984107017517
1714858342465071600,6.806071533203125,9.275136947631836,4.7405195236206055,-0.5602431893348694
1714858342475021000,6.81602099609375,9.006986618041992,4.802768707275391,-0.4118026793003082
1714858342484970500,6.825970458984375,9.23682975769043,4.946420669555664,-0.5315127968788147
1714858342494920000,6.835919921875,9.514557838439941,5.027823448181152,-0.790086567401886
1714858342504869600,6.84586962890625,9.059659004211426,4.999093055725098,-1.0438719987869263
1714858342514819000,6.855819091796875,8.633491516113281,4.927267074584961,-1.1061211824417114
1714858342524768500,6.8657685546875,8.470685958862305,5.008669853210449,-0.8523358106613159
1714858342534718000,6.875718017578125,8.427590370178223,4.841075897216797,-0.6272808313369751
1714858342544667400,6.88566748046875,8.710105895996094,4.6734819412231445,-0.7709329724311829
1714858342554616800,6.895616943359375,9.02135181427002,4.644751071929932,-1.0630255937576294
1714858342564566300,6.905566162109375,9.27034854888916,4.477157115936279,-1.0055646896362305
1714858342574516000,6.915515869140625,9.639056205749512,4.352658748626709,-0.8427590131759644
1714858342584465400,6.92546533203125,9.84495735168457,4.228160381317139,-0.45489832758903503
1714858342594414800,6.935414794921875,9.955090522766113,4.256890773773193,-0.363918662071228
1714858342604364300,6.9453642578125,9.931148529052734,4.20421838760376,-0.33039984107017517
1714858342614313700,6.955313720703125,9.691728591918945,4.027047157287598,-0.5793967843055725
1714858342624263200,6.96526318359375,9.452308654785156,4.137180328369141,-0.45010992884635925
1714858342634212900,6.975212890625,9.452308654785156,4.094084739685059,-0.6943184733390808
1714858342644162300,6.985162353515625,9.490615844726562,4.079719543457031,-0.4405331015586853
1714858342654111700,6.99511181640625,9.600749015808105,4.036623954772949,-0.12928688526153564
1714858342664061200,7.005061279296875,9.782708168029785,3.8498764038085938,-0.090979665517807
1714858342674010600,7.0150107421875,9.945513725280762,3.6774938106536865,-0.2346317619085312
1714858342683960000,7.0249599609375,9.84495735168457,3.7876269817352295,-0.004788403399288654
1714858342693909500,7.034909423828125,9.77791976928711,4.036623954772949,0.363918662071228
1714858342703859200,7.044859130859375,9.66299819946289,4.113238334655762,0.7230489253997803
1714858342713808600,7.05480859375,9.390059471130371,4.390965938568115,1.0678139925003052
1714858342723758000,7.064758056640625,8.944737434387207,5.5114521980285645,1.742978811264038
1714858342733707500,7.07470751953125,8.547300338745117,3.9456443786621094,-0.5602431893348694
1714858342743657000,7.084656982421875,8.518569946289062,3.5194764137268066,-1.316810965538025
1714858342753606400,7.0946064453125,8.820239067077637,4.1180267333984375,-0.5123591423034668
1714858342763556000,7.10455615234375,8.757989883422852,4.548983097076416,0.2825157940387726
1714858342773505500,7.114505615234375,8.44195556640625,4.486733913421631,0.3974374830722809
1714858342783455000,7.124455078125,8.513781547546387,4.405331134796143,0.6512228846549988
1714858342793404400,7.134404296875,8.882488250732422,4.395754337310791,0.8427590131759644
1714858342803353900,7.144353759765625,9.21288776397705,4.400542736053467,0.5650315880775452
1714858342813303300,7.15430322265625,9.404424667358398,4.357447147369385,-0.28730419278144836
1714858342823252700,7.164252685546875,9.308655738830566,4.256890773773193,-1.2114660739898682
1714858342833202400,7.174202392578125,9.059659004211426,4.194641590118408,-1.6711528301239014
1714858342843152000,7.18415185546875,9.141061782836914,4.261679172515869,-1.647210717201233
1714858342853101300,7.194101318359375,9.452308654785156,4.874594688415527,-1.1204863786697388
1714858342863050800,7.20405078125,9.816226959228516,5.420472621917725,0.2298433631658554
1714858342873000200,7.214000244140625,10.041281700134277,5.4444146156311035,1.4748282432556152
1714858342882949600,7.22394970703125,9.955090522766113,5.152322292327881,2.3511061668395996
1714858342892899300,7.2338994140625,9.821015357971191,4.999093055725098,2.652775526046753
1714858342902848800,7.243848876953125,9.619902610778809,5.07570743560791,2.6862943172454834
1714858342912798200,7.253798095703125,9.117119789123535,4.788403511047363,2.7676970958709717
1714858342922747600,7.26374755859375,8.389283180236816,4.405331134796143,3.141192674636841
1714858342932697000,7.273697021484375,9.21288776397705,3.8498764038085938,3.2800562381744385
1714858342942646500,7.283646484375,10.63504409790039,3.773261785507202,3.093308687210083
1714858342952596000,7.293595947265625,12.253523826599121,4.079719543457031,1.5753847360610962
1714858342962545700,7.303545654296875,12.617443084716797,4.721365928649902,0.47405192255973816
1714858342972495000,7.3134951171875,12.732364654541016,5.1331682205200195,0.10534487664699554
1714858342982444500,7.323444580078125,12.320562362670898,5.190629482269287,0.08140286058187485
1714858342992394000,7.33339404296875,11.075576782226562,5.094861030578613,0.3256114423274994
1714858343002343400,7.343343505859375,9.53849983215332,4.908113479614258,0.5793967843055725
1714858343012292900,7.35329296875,8.11634349822998,4.908113479614258,1.5418659448623657
1714858343022242300,7.3632421875,7.570465564727783,4.764461517333984,2.829946517944336
1714858343032191700,7.373191650390625,7.173028469085693,4.299986362457275,3.6152446269989014
1714858343042141200,7.38314111328125,7.105990409851074,4.189853191375732,3.6152446269989014
1714858343052090600,7.393090576171875,7.177816867828369,4.256890773773193,3.093308687210083
1714858343062040000,7.4030400390625,7.42681360244751,4.525041103363037,1.8483237028121948
1714858343071989500,7.412989501953125,8.154650688171387,4.812345504760742,0.33039984107017517
1714858343081939000,7.42293896484375,9.117119789123535,5.018246650695801,-1.0821791887283325
1714858343091888400,7.432888427734375,9.763554573059082,5.07570743560791,-1.800439715385437
1714858343101837800,7.442837890625,10.223240852355957,5.137956619262695,-1.9776105880737305
1714858343111787300,7.452787353515625,9.509769439697266,4.865017890930176,-2.0254945755004883
1714858343121736700,7.46273681640625,8.063671112060547,4.659116744995117,-1.9536685943603516
1714858343131686100,7.47268603515625,7.613561630249023,4.5394062995910645,-1.6136919260025024
1714858343141635600,7.482635498046875,7.747636795043945,4.558559894561768,-0.8762778043746948
1714858343151585000,7.4925849609375,7.747636795043945,4.841075897216797,-0.38307225704193115
1714858343161534500,7.502534423828125,7.417236804962158,4.54419469833374,-0.8810662031173706
1714858343171484000,7.51248388671875,7.359776020050049,4.32871675491333,-1.41257905960083
1714858343181433300,7.522433349609375,7.790732383728027,4.218583583831787,-1.8531121015548706
1714858343191382500,7.532382568359375,7.886500358581543,4.41969633102417,-1.5418659448623657
1714858343201332000,7.54233203125,8.034940719604492,4.553771495819092,-0.8523358106613159
1714858343211281400,7.552281494140625,8.719682693481445,4.2329487800598145,-0.9002198576927185
1714858343221230800,7.56223095703125,9.327810287475586,4.079719543457031,-0.751779317855835
1714858343231180300,7.57218017578125,9.940725326538086,4.170699596405029,-0.5027823448181152
1714858343241129700,7.582129638671875,10.031704902648926,4.0749311447143555,-0.090979665517807
1714858343251079200,7.5920791015625,10.036493301391602,3.825934410095215,-0.20111294090747833
1714858343261028600,7.602028564453125,10.11789608001709,4.122815132141113,-0.29209262132644653
1714858343270978000,7.61197802734375,9.44752025604248,4.218583583831787,0.009576806798577309
1714858343280927500,7.621927490234375,8.887276649475098,4.1611223220825195,-0.21547815203666687
1714858343290877000,7.631876953125,8.93037223815918,4.51067590713501,0.2059013396501541
1714858343300826400,7.641826416015625,9.404424667358398,4.338293552398682,0.43095630407333374
1714858343310775800,7.65177587890625,9.99339771270752,3.912125587463379,-0.1867477297782898
1714858343320725200,7.661725341796875,10.247182846069336,3.8307228088378906,-0.22505496442317963
1714858343330674700,7.6716748046875,10.18493366241455,3.907337188720703,0.07661445438861847
1714858343340624100,7.6816240234375,9.797073364257812,3.9169139862060547,0.5123591423034668
1714858343350573600,7.691573486328125,9.327810287475586,3.778050184249878,0.5937620401382446
1714858343360523000,7.70152294921875,8.944737434387207,3.600879430770874,0.8379706144332886
1714858343370472400,7.711472412109375,8.791508674621582,3.624821424484253,1.5610195398330688
1714858343380422000,7.721421875,8.796297073364258,3.711012601852417,2.0015525817871094
1714858343390371300,7.731371337890625,9.016563415527344,3.7253777980804443,1.9153614044189453
1714858343400320800,7.74132080078125,9.222464561462402,3.9169139862060547,1.7621324062347412
1714858343410270200,7.751270263671875,9.260771751403809,4.022258758544922,1.4844050407409668
1714858343420220000,7.761219970703125,9.141061782836914,3.9839515686035156,1.1013327836990356
1714858343430169300,7.77116943359375,9.045293807983398,3.9600095748901367,0.7086837291717529
1714858343440118800,7.781118896484375,8.901641845703125,4.122815132141113,0.5315127968788147
1714858343450068200,7.791068115234375,8.820239067077637,4.3191399574279785,0.29209262132644653
1714858343460017700,7.801017578125,9.002198219299316,4.314351558685303,-0.06703764945268631
1714858343469967000,7.810967041015625,9.14585018157959,4.32871675491333,-0.23942017555236816
1714858343479916500,7.82091650390625,8.99740982055664,4.218583583831787,-0.28730419278144836
1714858343489866200,7.8308662109375,8.83939266204834,4.0749311447143555,-0.090979665517807
1714858343499815700,7.840815673828125,8.738836288452148,4.228160381317139,0.6224924325942993
1714858343509765000,7.85076513671875,9.117119789123535,4.261679172515869,1.072602391242981
1714858343519714600,7.860714599609375,9.797073364257812,4.1180267333984375,1.0869675874710083
1714858343529664000,7.8706640625,10.35252857208252,4.022258758544922,0.8858546018600464
1714858343539613400,7.880613525390625,10.515334129333496,4.180276393890381,0.8092401623725891
1714858343549563100,7.890563232421875,10.376470565795898,4.223371982574463,0.3495534360408783
1714858343559512600,7.9005126953125,9.945513725280762,4.151545524597168,-0.35434186458587646
1714858343569462000,7.9104619140625,9.265560150146484,4.390965938568115,-0.5363011956214905
1714858343579411500,7.920411376953125,8.470685958862305,4.587290287017822,-0.5793967843055725
1714858343589361000,7.93036083984375,7.8529815673828125,4.663905143737793,-0.7230489253997803
1714858343599310300,7.940310302734375,7.608773231506348,4.73573112487793,-0.8571242094039917
1714858343609259800,7.950259765625,7.608773231506348,4.812345504760742,-0.9528923034667969
1714858343619209500,7.96020947265625,7.766790390014648,4.817133903503418,-0.9481038451194763
1714858343629159000,7.970158935546875,7.943961143493652,4.7405195236206055,-0.8619126081466675
1714858343639108400,7.9801083984375,8.106766700744629,4.668693542480469,-0.5937620401382446
1714858343649057800,7.990057861328125,8.379706382751465,4.534617900848389,-0.24420857429504395
1714858343659007200,8.00000732421875,8.676587104797363,4.4292731285095215,0.14365209639072418
1714858343668956700,8.009956787109376,8.882488250732422,4.32871675491333,0.5267243981361389
1714858343678906400,8.01990625,9.030928611755371,4.242525577545166,0.6991068720817566
1714858343688855800,8.029855712890624,9.188945770263672,4.2090067863464355,0.4405331015586853
1714858343698805200,8.03980517578125,9.155426979064941,4.290409564971924,-0.13407529890537262
1714858343708754700,8.049754638671875,9.016563415527344,4.400542736053467,-0.6368576288223267
1714858343718704000,8.0597041015625,8.834604263305664,4.477157115936279,-0.8379706144332886
1714858343728653600,8.069653564453125,8.619126319885254,4.529829502105713,-0.828393816947937
1714858343738603000,8.07960302734375,8.418013572692871,4.534617900848389,-0.727837324142456
1714858343748552700,8.089552734375,8.422801971435547,4.501099109649658,-0.5937620401382446
1714858343758502100,8.099502197265625,8.53293514251709,4.4723687171936035,-0.3687070608139038
1714858343768451600,8.10945166015625,8.777143478393555,4.458003520965576,-0.06224924325942993
1714858343778401000,8.119401123046876,9.136273384094238,4.4532151222229,0.1628057211637497
1714858343788350500,8.1293505859375,9.361329078674316,4.41969633102417,0.16759411990642548
1714858343798300000,8.1392998046875,9.47146224975586,4.381389141082764,0
1714858343808249300,8.149249267578124,9.514557838439941,4.395754337310791,-0.07182604819536209
1714858343818199000,8.159198974609374,9.533711433410645,4.491522312164307,-0.08619125932455063
1714858343828148500,8.1691484375,9.524134635925293,4.654327869415283,0.014365210197865963
1714858343838098000,8.179097900390625,9.366117477416992,4.817133903503418,0.05746084079146385
1714858343848047400,8.18904736328125,9.255983352661133,4.941632270812988,-0.17238251864910126
1714858343857996800,8.198996826171875,9.279925346374512,4.970362663269043,-0.6847416758537292
1714858343867946200,8.2089462890625,9.184157371520996,4.955997467041016,-1.1444283723831177
1714858343877896000,8.21889599609375,8.87291145324707,4.821922302246094,-1.3407529592514038
1714858343887845400,8.228845458984376,8.537723541259766,4.764461517333984,-1.278503656387329
1714858343897794800,8.238794921875,8.365341186523438,4.98472785949707,-0.871489405632019
1714858343907744300,8.248744140625,8.212111473083496,5.319916248321533,-0.26336219906806946
1714858343917693700,8.258693603515624,8.446743965148926,5.631162166595459,0.22026655077934265
1714858343927643100,8.26864306640625,8.959102630615234,5.74129581451416,0.19153612852096558
1714858343937592600,8.278592529296875,9.409213066101074,5.688623428344727,-0.047884032130241394
1714858343947542300,8.288542236328125,9.66299819946289,5.458779811859131,-0.22505496442317963
1714858343957491700,8.29849169921875,9.667786598205566,5.252878665924072,-0.35434186458587646
1714858343967441200,8.308441162109375,9.44752025604248,5.243301868438721,-0.42616790533065796
1714858343977390600,8.318390625,9.217676162719727,5.329493045806885,-0.4644751250743866
1714858343987340000,8.328340087890625,9.107542991638184,5.410895824432373,-0.6129156351089478
1714858343997289500,8.33828955078125,9.030928611755371,5.492298603057861,-0.9481038451194763
1714858344007239200,8.3482392578125,8.834604263305664,5.497087001800537,-1.1779472827911377
1714858344017188600,8.358188720703126,8.461109161376953,5.382165431976318,-1.158793568611145
1714858344027138000,8.368137939453124,8.647856712341309,5.1810526847839355,-1.0103530883789062
1714858344037087500,8.37808740234375,8.882488250732422,5.17626428604126,-0.9289502501487732
1714858344047037000,8.388036865234374,9.246406555175781,5.2672438621521,-0.7230489253997803
1714858344056986400,8.397986328125,9.59596061706543,5.200206279754639,-0.49799394607543945
1714858344066935800,8.407935791015625,9.591172218322754,4.989516258239746,-0.40701428055763245
1714858344076885500,8.417885498046875,9.308655738830566,4.874594688415527,-0.4213795065879822
1714858344086835000,8.4278349609375,8.892065048217773,4.9368438720703125,-0.5650315880775452
1714858344096784400,8.437784423828125,8.595184326171875,4.941632270812988,-0.8044517636299133
1714858344106733800,8.44773388671875,8.446743965148926,4.845864295959473,-0.8762778043746948
1714858344116683300,8.457683349609376,8.437167167663574,4.797980308532715,-0.7709329724311829
1714858344126632700,8.4676328125,8.374917984008789,4.812345504760742,-0.6224924325942993
1714858344136582100,8.47758203125,8.226476669311523,4.716577529907227,-0.4596867263317108
1714858344146531300,8.48753125,8.14028549194336,4.639962673187256,-0.2585737705230713
1714858344156480800,8.497480712890624,8.087613105773926,4.616020679473877,-0.2585737705230713
1714858344166430200,8.50743017578125,8.197746276855469,4.534617900848389,-0.33039984107017517
1714858344176379600,8.517379638671875,8.456320762634277,4.376600742340088,-0.26815059781074524
1714858344186329000,8.5273291015625,8.662221908569336,4.261679172515869,-0.272938996553421
1714858344196278500,8.537278564453125,8.892065048217773,4.146757125854492,-0.3208230137825012
1714858344206228000,8.54722802734375,9.241618156433105,4.0078935623168945,-0.4692635238170624
1714858344216177400,8.557177490234375,9.68694019317627,3.88818359375,-0.8140285611152649
1714858344226126800,8.567126953125,9.854534149169922,3.754108190536499,-1.1109095811843872
1714858344236076300,8.577076171875,9.921571731567383,3.5721490383148193,-1.2306196689605713
1714858344246025700,8.587025634765626,10.007762908935547,3.3949780464172363,-1.2114660739898682
1714858344255975200,8.59697509765625,10.002974510192871,3.318363666534424,-1.072602391242981
1714858344265924600,8.606924560546876,9.921571731567383,3.318363666534424,-0.8140285611152649
1714858344275874000,8.6168740234375,9.859322547912598,3.3662476539611816,-0.5027823448181152
1714858344285823500,8.626823486328124,9.911994934082031,3.399766445159912,-0.19632454216480255
1714858344295773000,8.63677294921875,9.950302124023438,3.44765043258667,0.090979665517807
1714858344305722400,8.646722412109375,9.921571731567383,3.4763808250427246,0.28730419278144836
1714858344315671800,8.656671875,9.682151794433594,3.552995204925537,0.19632454216480255
1714858344325621200,8.666621337890625,9.481039047241211,3.706224203109741,-0.2106897532939911
1714858344335570700,8.67657080078125,9.409213066101074,3.7445313930511475,-0.6320692300796509
1714858344345519900,8.686519775390625,9.265560150146484,3.6822822093963623,-0.8667010068893433
1714858344355469300,8.69646923828125,8.99740982055664,3.60566782951355,-0.8379706144332886
1714858344365418800,8.706418701171875,8.80587387084961,3.557783842086792,-0.6320692300796509
1714858344375368200,8.7163681640625,8.834604263305664,3.5913026332855225,-0.40701428055763245
1714858344385317600,8.726317626953126,9.002198219299316,3.643975019454956,-0.13407529890537262
1714858344395267000,8.73626708984375,9.227252960205078,3.687070608139038,0.2346317619085312
1714858344405216500,8.746216552734374,9.50498104095459,3.7684733867645264,0.3974374830722809
1714858344415166000,8.756166015625,9.763554573059082,3.8786067962646484,0.31603461503982544
1714858344425115400,8.766115478515625,9.911994934082031,3.9264907836914062,0.05267243832349777
1714858344435064800,8.77606494140625,9.907206535339355,3.907337188720703,-0.3974374830722809
1714858344445014300,8.78601416015625,9.835380554199219,3.8355112075805664,-0.9481038451194763
1714858344454963700,8.795963623046875,9.672574996948242,3.7924153804779053,-1.41257905960083
1714858344464913200,8.8059130859375,9.47146224975586,3.7493197917938232,-1.6280571222305298
1714858344474862600,8.815862548828125,9.308655738830566,3.691859006881714,-1.599326729774475
1714858344484812000,8.82581201171875,9.452308654785156,3.663128614425659,-1.4508862495422363
1714858344494761500,8.835761474609376,9.849745750427246,3.6774938106536865,-1.278503656387329
1714858344504711000,8.8457109375,10.20887565612793,3.687070608139038,-1.0582371950149536
1714858344514660400,8.855660400390626,10.405200958251953,3.5434184074401855,-0.7757213711738586
1714858344524610000,8.865610107421874,10.505757331848145,3.265691041946411,-0.5219359993934631
1714858344534559500,8.8755595703125,10.548852920532227,3.00711727142334,-0.3878606855869293
1714858344544509000,8.885509033203125,10.472238540649414,2.849100112915039,-0.33518823981285095
1714858344554458400,8.895458251953125,10.290278434753418,2.8155810832977295,-0.2968810200691223
1714858344564407800,8.90540771484375,10.180145263671875,2.8395233154296875,-0.2537853717803955
1714858344574357200,8.915357177734375,10.247182846069336,2.849100112915039,-0.17717093229293823
1714858344584306700,8.925306640625,10.285490036010742,2.849100112915039,-0.1388636976480484
1714858344594256400,8.93525634765625,10.256759643554688,2.8347349166870117,-0.12449848651885986
1714858344604205800,8.945205810546875,10.228029251098633,2.7964274883270264,-0.14844051003456116
1714858344614155300,8.9551552734375,10.280701637268066,2.7724854946136475,-0.12449848651885986
1714858344624104700,8.965104736328126,10.213664054870605,2.8107926845550537,-0.11013327538967133
1714858344634054100,8.97505419921875,9.950302124023438,2.849100112915039,-0.06703764945268631
1714858344644003600,8.985003662109374,9.68694019317627,2.8586769104003906,-0.07182604819536209
1714858344653953300,8.994953369140624,9.5624418258667,2.892195701599121,-0.05267243832349777
1714858344663902700,9.00490283203125,9.615114212036133,2.920926094055176,0.08619125932455063
1714858344673852200,9.01485205078125,9.701305389404297,3.002328872680664,0.15801730751991272
1714858344683801600,9.024801513671875,9.787496566772461,3.0358476638793945,0
1714858344693751000,9.0347509765625,9.835380554199219,3.0406360626220703,-0.2106897532939911
1714858344703700500,9.044700439453125,9.653421401977539,3.136404275894165,-0.14844051003456116
1714858344713650000,9.05464990234375,9.543288230895996,3.179499864578247,-0.11971008777618408
1714858344723599600,9.064599609375,9.53849983215332,3.2800562381744385,-0.043095629662275314
1714858344733549000,9.074549072265626,9.643844604492188,3.423708438873291,0.014365210197865963
1714858344743498500,9.08449853515625,9.782708168029785,3.3949780464172363,0.12449848651885986
1714858344753448000,9.094447998046874,9.710882186889648,3.2848446369171143,0.21547815203666687
1714858344763397400,9.1043974609375,9.59596061706543,3.2561142444610596,0.2777273952960968
1714858344773346800,9.114346923828125,9.514557838439941,3.2082302570343018,0.1867477297782898
1714858344783296500,9.124296630859375,9.490615844726562,3.069366693496704,-0.08140286058187485
1714858344793246000,9.134245849609375,9.346963882446289,3.2082302570343018,0
1714858344803195400,9.1441953125,9.41400146484375,3.5051112174987793,0.014365210197865963
1714858344813144800,9.154144775390625,9.600749015808105,3.711012601852417,0.043095629662275314
1714858344823094300,9.16409423828125,9.773131370544434,3.6583402156829834,-0.009576806798577309
1714858344833043700,9.174043701171875,9.916783332824707,3.428496837615967,-0.16759411990642548
1714858344842993200,9.1839931640625,9.93593692779541,3.2082302570343018,-0.29209262132644653
1714858344852942800,9.19394287109375,9.873687744140625,3.1268274784088135,-0.31603461503982544
1714858344862892300,9.203892333984374,9.916783332824707,3.1938650608062744,-0.2825157940387726
1714858344872841700,9.213841796875,9.974244117736816,3.337517261505127,-0.16759411990642548
1714858344882791200,9.223791259765624,9.816226959228516,3.4763808250427246,-0.090979665517807
1714858344892740600,9.23374072265625,9.50498104095459,3.514688014984131,-0.06703764945268631
1714858344902690000,9.24368994140625,9.17936897277832,3.514688014984131,-0.05746084079146385
1714858344912639700,9.2536396484375,8.983044624328613,3.514688014984131,-0.06224924325942993
1714858344922589200,9.263589111328125,8.949525833129883,3.576937437057495,-0.07182604819536209
1714858344932538600,9.27353857421875,9.064447402954102,3.6391866207122803,-0.05746084079146385
1714858344942488000,9.283488037109375,9.227252960205078,3.5721490383148193,-0.014365210197865963
1714858344952437500,9.2934375,9.294290542602539,3.2848446369171143,-0.05746084079146385
1714858344962387000,9.303386962890626,9.375694274902344,3.1220390796661377,0.06224924325942993
1714858344972336400,9.31333642578125,9.624691009521484,3.2752678394317627,0.40701428055763245
1714858344982286000,9.3232861328125,9.983820915222168,3.4763808250427246,0.5410895943641663
1714858344992235500,9.333235595703124,9.96945571899414,3.529053211212158,0.38307225704193115
1714858345002185000,9.34318505859375,9.68694019317627,3.442862033843994,0.07182604819536209
1714858345012134400,9.353134521484375,9.44752025604248,3.332728862762451,-0.1388636976480484
1714858345022083800,9.363083740234375,9.342175483703613,3.35667085647583,-0.15801730751991272
1714858345032033300,9.373033203125,9.351752281188965,3.4620156288146973,-0.019153613597154617
1714858345041983000,9.38298291015625,9.337387084960938,3.5482068061828613,0.16759411990642548
1714858345051932400,9.392932373046875,9.332598686218262,3.5242648124694824,0.3495534360408783
1714858345061881900,9.4028818359375,9.337387084960938,3.4620156288146973,0.4692635238170624
1714858345071831300,9.412831298828126,9.452308654785156,3.3710360527038574,0.4596867263317108
1714858345081780700,9.42278076171875,9.615114212036133,3.265691041946411,0.38307225704193115
1714858345091730200,9.432730224609376,9.840168952941895,3.2800562381744385,0.3256114423274994
1714858345101679600,9.4426796875,10.098742485046387,3.308786630630493,0.3926490843296051
1714858345111629000,9.452629150390624,9.979032516479492,3.3470940589904785,0.40222588181495667
1714858345121578500,9.46257861328125,9.739612579345703,3.3423056602478027,0.3256114423274994
1714858345131528000,9.47252783203125,9.605537414550781,3.294421434402466,0.2777273952960968
1714858345141477400,9.482477294921875,9.53849983215332,3.2752678394317627,0.3064578175544739
1714858345151426800,9.4924267578125,9.50498104095459,3.3423056602478027,0.31124621629714966
1714858345161376300,9.502376220703125,9.615114212036133,3.4524388313293457,0.2585737705230713
1714858345171325700,9.51232568359375,9.840168952941895,3.4524388313293457,0.3064578175544739
1714858345181275100,9.522275146484375,9.950302124023438,3.375824451446533,0.3734954595565796
1714858345191224600,9.532224609375,9.96945571899414,3.2800562381744385,0.44532153010368347
1714858345201174000,9.542174072265626,9.983820915222168,3.227383852005005,0.5410895943641663
1714858345211123500,9.55212353515625,9.90241813659668,3.28963303565979,0.569819986820221
1714858345221073000,9.562072998046874,9.797073364257812,3.44765043258667,0.5602431893348694
1714858345231022300,9.572022216796874,9.643844604492188,3.600879430770874,0.33039984107017517
1714858345240971800,9.5819716796875,9.528923034667969,3.6343982219696045,0.08140286058187485
1714858345250921200,9.591921142578125,9.485827445983887,3.5482068061828613,-0.028730420395731926
1714858345260870700,9.60187060546875,9.519346237182617,3.4524388313293457,0.023942016065120697
1714858345270820000,9.611820068359375,9.667786598205566,3.4141316413879395,0.16759411990642548
1714858345280769500,9.62176953125,9.792284965515137,3.4332852363586426,0.2968810200691223
1714858345290718700,9.63171875,9.816226959228516,3.4620156288146973,0.29209262132644653
1714858345300668200,9.641668212890625,9.797073364257812,3.466804027557373,0.14365209639072418
1714858345310617600,9.65161767578125,9.739612579345703,3.5865142345428467,-0.11971008777618408
1714858345320567000,9.661567138671876,9.418789863586426,3.5625722408294678,-0.45010992884635925
1714858345330516500,9.6715166015625,8.844181060791016,3.375824451446533,-0.9768342971801758
1714858345340466000,9.6814658203125,8.101978302001953,3.6296098232269287,-0.8762778043746948
1714858345350415400,9.691415283203124,8.006210327148438,3.907337188720703,-0.5746083855628967
1714858345360364800,9.70136474609375,8.245630264282227,3.9887399673461914,-0.3064578175544739
1714858345370314200,9.711314208984374,8.695740699768066,3.88818359375,-0.12449848651885986
1714858345380263700,9.721263671875,9.495404243469238,3.7445313930511475,-0.08619125932455063
1714858345390213000,9.731213134765625,10.251971244812012,3.706224203109741,-0.10055647045373917
1714858345400162600,9.74116259765625,10.644620895385742,3.600879430770874,-0.10055647045373917
1714858345410112000,9.751112060546875,10.491392135620117,3.466804027557373,-0.31603461503982544
1714858345420061400,9.7610615234375,10.132261276245117,3.4141316413879395,-0.5315127968788147
1714858345430011000,9.771010986328125,9.720458984375,3.2992098331451416,-0.689530074596405
1714858345439960300,9.780960205078125,9.337387084960938,3.332728862762451,-1.0630255937576294
1714858345449909800,9.79090966796875,9.141061782836914,3.6583402156829834,-0.8236053586006165
1714858345459859200,9.800859130859376,9.251194953918457,3.892971992492676,-0.47405192255973816
1714858345469808600,9.81080859375,9.423578262329102,3.7684733867645264,-0.31603461503982544
1714858345479758000,9.820758056640624,9.457097053527832,3.3949780464172363,-0.4692635238170624
1714858345489707300,9.830707275390624,9.47146224975586,3.1076738834381104,-0.5793967843055725
1714858345499656700,9.84065673828125,9.533711433410645,3.093308687210083,-0.5027823448181152
1714858345509606100,9.850606201171875,9.581595420837402,3.2417490482330322,-0.40701428055763245
1714858345519555800,9.860555908203125,9.548076629638672,3.308786630630493,-0.4884171485900879
1714858345529505300,9.87050537109375,9.409213066101074,3.2848446369171143,-0.7086837291717529
1714858345539454700,9.880454833984375,9.155426979064941,3.2992098331451416,-0.8810662031173706
1714858345549404200,9.890404052734375,8.887276649475098,3.203441858291626,-0.8379706144332886
1714858345559353600,9.900353515625,8.829815864562988,3.1507694721221924,-1.091755986213684
1714858345569303000,9.910302978515626,9.050082206726074,3.5913026332855225,-1.039083480834961
1714858345579252500,9.92025244140625,9.44752025604248,3.821146011352539,-0.8475474119186401
1714858345589202200,9.9302021484375,9.605537414550781,3.5242648124694824,-0.9816226959228516
1714858345599151600,9.940151611328124,9.59596061706543,3.0837318897247314,-1.0534487962722778
1714858345609101000,9.95010107421875,9.75397777557373,2.873042106628418,-0.7086837291717529
1714858345619050500,9.960050537109375,9.907206535339355,2.8874073028564453,-0.26336219906806946
1714858345629000000,9.97,9.854534149169922,2.853888511657715,-0.09576806426048279
1714858345638949400,9.979949462890625,9.825803756713867,2.8347349166870117,-0.16759411990642548
1714858345648899000,9.989899169921875,9.653421401977539,2.853888511657715,-0.45010992884635925
1714858345658848500,9.9998486328125,9.605537414550781,2.873042106628418,-0.6703764796257019
1714858345668798000,10.0097978515625,9.653421401977539,2.8347349166870117,-0.6368576288223267
1714858345678747400,10.019747314453125,9.730035781860352,2.8107926845550537,-0.5506663918495178
1714858345688696800,10.02969677734375,9.782708168029785,2.8155810832977295,-0.4644751250743866
1714858345698646300,10.039646240234376,9.888052940368652,2.8347349166870117,-0.4644751250743866
1714858345708595700,10.049595703125,9.955090522766113,2.82515811920166,-0.6129156351089478
1714858345718545400,10.05954541015625,10.06043529510498,2.7533318996429443,-0.7948749661445618
1714858345728494800,10.069494873046875,10.319009780883789,2.6623523235321045,-0.871489405632019
1714858345738444300,10.0794443359375,10.615890502929688,2.5665841102600098,-0.9241618514060974
1714858345748393700,10.089393798828125,10.864887237548828,2.499546527862549,-0.9481038451194763
1714858345758343200,10.09934326171875,10.888829231262207,2.4181437492370605,-0.9002198576927185
1714858345768292600,10.109292724609375,10.754754066467285,2.3702597618103027,-0.7709329724311829
1714858345778242300,10.1192421875,10.539276123046875,2.3798365592956543,-0.689530074596405
1714858345788191700,10.129191650390625,10.165780067443848,2.4612393379211426,-0.7948749661445618
1714858345798141200,10.13914111328125,9.725247383117676,2.5091233253479004,-0.9193734526634216
