time,seconds_elapsed,z,y,x
1714858335808870000,0.149869873046875,-0.048203181475400925,0.008388951420783997,0.062317922711372375
1714858335818819300,0.1598193359375,-0.02583264373242855,-0.08002793043851852,0.04314317926764488
1714858335828768800,0.169768798828125,-0.0023968431632965803,-0.13009531795978546,0.059122130274772644
1714858335838718200,0.17971826171875,0.008255792781710625,-0.12476900219917297,0.10705899447202682
1714858335848667600,0.189667724609375,-0.0034621069207787514,-0.07044056057929993,0.16245271265506744
1714858335858617000,0.1996171875,-0.026897907257080078,0.010519478470087051,0.18695376813411713
1714858335868566300,0.209566162109375,-0.05779055133461952,0.08402267098426819,0.17204007506370544
1714858335878515700,0.219515625,-0.09400951862335205,0.11598058044910431,0.12836426496505737
1714858335888465200,0.229465087890625,-0.12277163565158844,0.10106688737869263,0.07616634666919708
1714858335898414600,0.23941455078125,-0.13768532872200012,0.05632581561803818,0.011185267940163612
1714858335908364000,0.249364013671875,-0.1344895362854004,-0.0022636852227151394,-0.058056868612766266
1714858335918313500,0.2593134765625,-0.10998847335577011,-0.07363634556531906,-0.12410321086645126
1714858335928263000,0.269262939453125,-0.08974846452474594,-0.15353111922740936,-0.17736639082431793
1714858335938212400,0.27921240234375,-0.08016108721494675,-0.2174469381570816,-0.20825904607772827
1714858335948161800,0.289161865234375,-0.06950845569372177,-0.24940484762191772,-0.2253032624721527
1714858335958111200,0.299111328125,-0.05033370852470398,-0.2749711871147156,-0.21358536183834076
1714858335968060700,0.309060791015625,-0.03755054250359535,-0.30053749680519104,-0.19654114544391632
1714858335978010000,0.319010009765625,-0.0588558167219162,-0.32823434472084045,-0.17949692904949188
1714858335987959600,0.32895947265625,-0.09507478028535843,-0.31332066655158997,-0.18908429145812988
1714858335997909000,0.338908935546875,-0.10040109604597092,-0.24194800853729248,-0.23276010155677795
1714858336007858400,0.3488583984375,-0.06950845569372177,-0.15779218077659607,-0.2828274965286255
1714858336017808000,0.358807861328125,-0.023702116683125496,-0.12689952552318573,-0.3020022511482239
1714858336027757300,0.36875732421875,0.04234423115849495,-0.10133320093154907,-0.3094590902328491
1714858336037706800,0.378706787109375,0.12117373943328857,-0.0672447681427002,-0.31798118352890015
1714858336047656200,0.38865625,0.18722008168697357,-0.020373167470097542,-0.3147853910923004
1714858336057605600,0.398605712890625,0.22450430691242218,0.07656582444906235,-0.30839383602142334
1714858336067554800,0.408554931640625,0.2234390527009964,0.21931114792823792,-0.3094590902328491
1714858336077504300,0.418504150390625,0.19254639744758606,0.3247722387313843,-0.30306750535964966
1714858336087454000,0.428453857421875,0.13076111674308777,0.2853575050830841,-0.2966759204864502
1714858336097403400,0.4384033203125,0.09880319982767105,0.17563533782958984,-0.33715593814849854
1714858336107352800,0.448352783203125,0.09454214572906494,0.0648479238152504,-0.41598546504974365
1714858336117302300,0.45830224609375,0.11478215456008911,-0.05020054802298546,-0.4841623306274414
1714858336127251700,0.468251708984375,0.17337165772914886,-0.19614167511463165,-0.502271831035614
1714858336137201200,0.478201171875,0.25326642394065857,-0.28668907284736633,-0.456465482711792
1714858336147150600,0.488150634765625,0.31505173444747925,-0.22383852303028107,-0.335025429725647
1714858336157100300,0.498100341796875,0.36298859119415283,-0.0342215932905674,-0.13795164227485657
1714858336167049700,0.5080498046875,0.393881231546402,0.2012016773223877,0.10492847114801407
1714858336176999200,0.517999267578125,0.39920756220817566,0.45686495304107666,0.3573959469795227
1714858336186948600,0.527948486328125,0.44181808829307556,0.7807050943374634,0.5416865348815918
1714858336196898000,0.53789794921875,0.5163865685462952,1.075783133506775,0.6034718751907349
1714858336206847500,0.547847412109375,0.5579318404197693,1.2046799659729004,0.5502086877822876
1714858336216797200,0.557797119140625,0.517451822757721,1.1705915927886963,0.4287686049938202
1714858336226746600,0.56774658203125,0.391750693321228,0.8968188166618347,0.3659180700778961
1714858336236696000,0.577696044921875,0.23622220754623413,0.4930838942527771,0.36059173941612244
1714858336246645500,0.5876455078125,0.08921582996845245,0.195875346660614,0.34035173058509827
1714858336256595000,0.597594970703125,-0.05459476262331009,0.08295740932226181,0.2860232889652252
1714858336266544400,0.60754443359375,-0.20266640186309814,0.16711322963237762,0.23595589399337769
1714858336276493800,0.617493896484375,-0.3358243703842163,0.3599259555339813,0.1933453530073166
1714858336286443500,0.627443603515625,-0.3784348964691162,0.5591302514076233,0.11664637178182602
1714858336296393000,0.63739306640625,-0.3177148699760437,0.7519429922103882,-0.011185267940163612
1714858336306342400,0.64734228515625,-0.21758009493350983,0.8233156204223633,-0.12303794920444489
1714858336316291800,0.657291748046875,-0.13129374384880066,0.8084019422531128,-0.19014956057071686
1714858336326241300,0.6672412109375,-0.10146636515855789,0.7412903308868408,-0.21038956940174103
1714858336336190700,0.677190673828125,-0.16964323818683624,0.6986798048019409,-0.22423799335956573
1714858336346140400,0.687140380859375,-0.33902016282081604,0.8893619775772095,-0.3339601457118988
1714858336356089900,0.69708984375,-0.4434159994125366,1.3261200189590454,-0.586427628993988
1714858336366039300,0.707039306640625,-0.39121806621551514,1.9791266918182373,-1.0104025602340698
1714858336375988700,0.71698876953125,-0.28149592876434326,2.2699437141418457,-1.2799142599105835
1714858336385938200,0.726938232421875,-0.11744531989097595,2.4648869037628174,-1.4269206523895264
1714858336395887600,0.7368876953125,0.06897582113742828,2.674743890762329,-1.5856449604034424
1714858336405837000,0.746837158203125,0.18189376592636108,3.0241503715515137,-1.847699761390686
1714858336415786800,0.756786865234375,0.1765674501657486,3.405514717102051,-2.173670530319214
1714858336425736200,0.766736083984375,0.12223900109529495,3.4459946155548096,-2.484727382659912
1714858336435685600,0.776685546875,0.03382211923599243,3.1328072547912598,-2.727607488632202
1714858336445635000,0.786635009765625,-0.07803056389093399,2.452103853225708,-2.9044413566589355
1714858336455584500,0.79658447265625,-0.2761695981025696,1.5945664644241333,-2.9779446125030518
1714858336465534000,0.806533935546875,-0.5414202213287354,0.6976145505905151,-2.823481321334839
1714858336475483600,0.816483642578125,-0.7523424625396729,-0.4986765384674072,-2.3196115493774414
1714858336485433000,0.82643310546875,-0.7470161318778992,-2.24570894241333,-1.4929670095443726
1714858336495382500,0.836382568359375,-0.6426202654838562,-3.822299003601074,-0.3563306927680969
1714858336505332000,0.84633203125,-0.6372939944267273,-4.488089084625244,0.8697877526283264
1714858336515281400,0.856281494140625,-0.7768434882164001,-4.5349602699279785,1.8423734903335571
1714858336525230800,0.86623095703125,-1.0388983488082886,-4.498741626739502,2.426137924194336
1714858336535180300,0.87618017578125,-1.2913658618927002,-4.284623622894287,2.593384265899658
1714858336545130000,0.8861298828125,-1.371260643005371,-3.8798234462738037,2.451704263687134
1714858336555079400,0.896079345703125,-1.3318458795547485,-3.5922021865844727,2.157691478729248
1714858336565028900,0.90602880859375,-1.2903006076812744,-4.48915433883667,1.8562219142913818
1714858336574978300,0.915978271484375,-1.116662621498108,-4.821516513824463,1.326785922050476
1714858336584927700,0.925927734375,0.08069372177124023,-0.649944007396698,-0.7728487849235535
1714858336594877200,0.935877197265625,1.3728585243225098,0.008388951420783997,-1.8455692529678345
1714858336604827000,0.945826904296875,1.409077525138855,-2.0795278549194336,-1.2586089372634888
1714858336614776300,0.9557763671875,0.6463487148284912,-2.5024373531341553,-0.7472824454307556
1714858336624725800,0.965725830078125,-0.1387505829334259,-2.548243761062622,-0.5374255180358887
1714858336634675200,0.97567529296875,-0.6404897570610046,-2.419346809387207,-0.39361491799354553
1714858336644624600,0.985624755859375,-0.8322372436523438,-1.9421087503433228,-0.23276010155677795
1714858336654574000,0.995573974609375,-0.8471509218215942,-1.2986894845962524,0.11238531768321991
1714858336664523500,1.0055234375,-0.7843003273010254,-0.6478134393692017,0.6705834865570068
1714858336674473200,1.01547314453125,-0.5936181545257568,0.05206476151943207,1.1254510879516602
1714858336684422700,1.025422607421875,-0.23888537287712097,0.8595346212387085,1.2330427169799805
1714858336694372000,1.0353720703125,0.14567480981349945,1.3825790882110596,1.1542131900787354
1714858336704321500,1.045321533203125,0.4972118139266968,1.4528864622116089,1.0231857299804688
1714858336714271000,1.05527099609375,0.8242477178573608,1.2792484760284424,0.8889625072479248
1714858336724220400,1.065220458984375,1.028778314590454,0.9628651738166809,0.7600656151771545
1714858336734170000,1.075170166015625,1.1544795036315918,0.572978675365448,0.5704486966133118
1714858336744119600,1.08511962890625,1.2237216234207153,0.12343742698431015,0.3850927948951721
1714858336754069000,1.095069091796875,1.158740520477295,-0.15992270410060883,0.30413275957107544
1714858336764018400,1.105018310546875,1.0213215351104736,0.009454214945435524,0.3105243444442749
1714858336773968000,1.1149677734375,0.8689888119697571,0.5623260736465454,0.40746334195137024
1714858336783917300,1.124917236328125,0.7507445216178894,1.0779136419296265,0.5949497222900391
1714858336793866800,1.13486669921875,0.7912245988845825,1.4422338008880615,0.7930887937545776
1714858336803816400,1.14481640625,1.0277130603790283,1.611610770225525,1.0380994081497192
1714858336813766000,1.154765869140625,1.3813806772232056,1.5029538869857788,1.3651353120803833
1714858336823715300,1.16471533203125,1.6487617492675781,1.5764570236206055,1.6857796907424927
1714858336833664800,1.174664794921875,1.6764585971832275,1.9247982501983643,1.834916591644287
1714858336843614200,1.1846142578125,1.3781847953796387,2.323206901550293,1.7678049802780151
1714858336853563600,1.194563720703125,0.9233172535896301,2.650242805480957,1.636777639389038
1714858336863513300,1.204513427734375,0.46525388956069946,2.6278722286224365,1.5472954511642456
1714858336873462800,1.214462890625,0.06684529036283493,2.1879184246063232,1.5526217222213745
1714858336883412200,1.224412109375,-0.2569948434829712,1.5977623462677002,1.6112112998962402
1714858336893361700,1.234361572265625,-0.44235071539878845,1.080044150352478,1.582449197769165
1714858336903311000,1.24431103515625,-0.4316980838775635,0.7711177468299866,1.2085416316986084
1714858336913260500,1.254260498046875,-0.2324937880039215,0.5218459963798523,0.6162550449371338
1714858336923210000,1.2642099609375,0.11904320865869522,0.04460791498422623,0.1272990107536316
1714858336933159700,1.27415966796875,0.3874896466732025,-0.30053749680519104,-0.31798118352890015
1714858336943109000,1.284109130859375,0.44181808829307556,-0.3303648829460144,-0.7771098017692566
1714858336953058600,1.29405859375,0.40346860885620117,-0.36019226908683777,-1.1201246976852417
1714858336963008000,1.304008056640625,0.38642439246177673,-0.575375497341156,-1.3310469388961792
1714858336972957400,1.31395751953125,0.40559911727905273,-0.9780451655387878,-1.4311816692352295
1714858336982907000,1.323906982421875,0.4066644012928009,-1.3668663501739502,-1.3587437868118286
1714858336992856600,1.333856689453125,0.37683701515197754,-1.5671359300613403,-1.093493103981018
1714858337002806000,1.343805908203125,0.34807488322257996,-1.7418391704559326,-0.7547392845153809
1714858337012755500,1.35375537109375,0.25433170795440674,-1.819603443145752,-0.4617917835712433
1714858337022705000,1.363704833984375,0.08602003753185272,-1.6832497119903564,-0.2689790725708008
1714858337032654300,1.373654296875,-0.06311687082052231,-1.4978938102722168,-0.20293273031711578
1714858337042603800,1.383603759765625,-0.12596742808818817,-1.362605333328247,-0.2689790725708008
1714858337052553200,1.39355322265625,-0.12277163565158844,-1.2731232643127441,-0.4245075583457947
1714858337062503000,1.4035029296875,-0.13022847473621368,-1.3317127227783203,-0.599210798740387
1714858337072452400,1.413452392578125,-0.18242639303207397,-1.3178642988204956,-0.7398256063461304
1714858337082401800,1.42340185546875,-0.2324937880039215,-1.1037462949752808,-0.787762463092804
1714858337092351200,1.433351318359375,-0.3273022472858429,-0.998285174369812,-0.720650851726532
1714858337102300700,1.44330078125,-0.5062665343284607,-1.0622010231018066,-0.6162550449371338
1714858337112250000,1.45325,-0.7321024537086487,-1.0622010231018066,-0.6045371294021606
1714858337122199600,1.463199462890625,-0.9046751260757446,-0.9673925638198853,-0.6609960794448853
1714858337132149200,1.473149169921875,-0.9046751260757446,-0.7117292881011963,-0.6737792491912842
1714858337142098700,1.4830986328125,-0.7331677079200745,-0.20466378331184387,-0.5438171029090881
1714858337152048000,1.493048095703125,-0.4199801981449127,0.4739091694355011,-0.24554327130317688
1714858337161997600,1.50299755859375,-0.05459476262331009,1.2153326272964478,0.1784316599369049
1714858337171947000,1.512947021484375,0.270310640335083,1.791640281677246,0.6865624189376831
1714858337181896400,1.522896484375,0.49934232234954834,1.9301245212554932,1.0775141716003418
1714858337191846100,1.53284619140625,0.4822981059551239,1.4859095811843872,1.039164662361145
1714858337201795600,1.542795654296875,0.27670222520828247,0.8787093162536621,0.7270424365997314
1714858337211745000,1.5527451171875,0.03808317333459854,0.6123934388160706,0.3808317482471466
1714858337221694500,1.562694580078125,-0.13662005960941315,0.5420860648155212,0.08042740821838379
1714858337231644000,1.572643798828125,-0.2005358785390854,0.6155892014503479,-0.15393058955669403
1714858337241593300,1.58259326171875,-0.2420811653137207,0.6880271434783936,-0.3201117217540741
1714858337251542800,1.592542724609375,-0.22929799556732178,0.6837661266326904,-0.3850927948951721
1714858337261492500,1.602492431640625,-0.13342426717281342,0.8329030275344849,-0.3797664940357208
1714858337271442000,1.61244189453125,-0.011984216049313545,1.1684610843658447,-0.2913496196269989
1714858337281391400,1.622391357421875,0.021038956940174103,1.4134716987609863,-0.09534109383821487
1714858337291340800,1.6323408203125,-0.0002663159102667123,1.6925708055496216,0.08681898564100266
1714858337301290200,1.642290283203125,-0.006657897960394621,1.7096149921417236,0.1933453530073166
1714858337311239700,1.65223974609375,0.012516847811639309,1.4209285974502563,0.24341274797916412
1714858337321189400,1.662189453125,0.024234747514128685,1.1535474061965942,0.2530001103878021
1714858337331138800,1.672138916015625,0.01784316636621952,1.0587389469146729,0.221042200922966
1714858337341088300,1.682088134765625,-0.036485280841588974,1.1120021343231201,0.11984215676784515
1714858337351037700,1.69203759765625,-0.07909582555294037,1.1492862701416016,-0.058056868612766266
1714858337360987100,1.701987060546875,-0.10998847335577011,1.1514167785644531,-0.2956106662750244
1714858337370936600,1.7119365234375,-0.1249021589756012,1.2174631357192993,-0.532099187374115
1714858337380886000,1.721885986328125,-0.15046848356723785,1.2419642210006714,-0.6918887495994568
1714858337390835700,1.731835693359375,-0.2239716798067093,1.1727221012115479,-0.7984151244163513
1714858337400785200,1.74178515625,-0.3219759464263916,1.029976725578308,-0.8495477437973022
1714858337410734600,1.751734619140625,-0.38056543469429016,0.8723177909851074,-0.7621961236000061
1714858337420684000,1.76168408203125,-0.38589176535606384,0.564456582069397,-0.5193160176277161
1714858337430633500,1.771633544921875,-0.36245596408843994,0.18096165359020233,-0.23808641731739044
1714858337440583000,1.7815830078125,-0.3656517565250397,-0.09813741594552994,0.03675159439444542
1714858337450532600,1.79153271484375,-0.40400123596191406,-0.1663142889738083,0.3094590902328491
1714858337460482000,1.80148193359375,-0.4498075842857361,-0.05339634045958519,0.5491434335708618
1714858337470431500,1.811431396484375,-0.492418110370636,0.1117195263504982,0.7174550890922546
1714858337480381000,1.821380859375,-0.5062665343284607,0.21398483216762543,0.7781751155853271
1714858337490330400,1.831330322265625,-0.4689823091030121,0.22144168615341187,0.7366297841072083
1714858337500279800,1.84127978515625,-0.39547911286354065,0.15539532899856567,0.6343644857406616
1714858337510229200,1.851229248046875,-0.31984540820121765,0.074435293674469,0.532099187374115
1714858337520179000,1.861178955078125,-0.24421168863773346,-0.027830012142658234,0.5086634159088135
1714858337530128400,1.87112841796875,-0.16325165331363678,-0.20146799087524414,0.5299686789512634
1714858337540077800,1.881077880859375,-0.11638005077838898,-0.3814975321292877,0.5139896869659424
1714858337550027300,1.89102734375,-0.12064110487699509,-0.48376286029815674,0.4617917835712433
1714858337559976700,1.900976806640625,-0.1483379602432251,-0.5093291997909546,0.3957454562187195
1714858337569926100,1.910926025390625,-0.17390428483486176,-0.5657881498336792,0.32330751419067383
1714858337579875800,1.920875732421875,-0.19414429366588593,-0.6659229397773743,0.2348906397819519
1714858337589825300,1.9308251953125,-0.19307903945446014,-0.7660577297210693,0.15606112778186798
1714858337599774700,1.940774658203125,-0.1621863842010498,-0.8342345952987671,0.09214530140161514
1714858337609724200,1.95072412109375,-0.1153147891163826,-0.8800409436225891,0.029294749721884727
1714858337619673600,1.960673583984375,-0.06418213248252869,-0.8693882822990417,-0.03249054029583931
1714858337629623000,1.970623046875,-0.0023968431632965803,-0.7948198318481445,-0.061252661049366
1714858337639572500,1.980572509765625,0.07004108279943466,-0.7032071352005005,-0.04527370631694794
1714858337649522200,1.990522216796875,0.12223900109529495,-0.6531397700309753,-0.022903168573975563
1714858337659471600,2.0004716796875,0.12650005519390106,-0.6371608376502991,-0.042077913880348206
1714858337669421000,2.010421142578125,0.0913463607430458,-0.6094639897346497,-0.07403582334518433
1714858337679370500,2.02037060546875,0.027430538088083267,-0.575375497341156,-0.07723161578178406
1714858337689320000,2.03031982421875,-0.03755054250359535,-0.5711144804954529,-0.06338318437337875
1714858337699269400,2.040269287109375,-0.0822916179895401,-0.6297039985656738,-0.01225053146481514
1714858337709219000,2.050218994140625,-0.13555480539798737,-0.7777756452560425,0.059122130274772644
1714858337719168500,2.06016845703125,-0.22077588737010956,-0.9769799113273621,0.11025478690862656
1714858337729118000,2.070117919921875,-0.29747486114501953,-1.2560789585113525,0.20399798452854156
1714858337739067400,2.0800673828125,-0.40932756662368774,-1.5564833879470825,0.3382211923599243
1714858337749016800,2.090016845703125,-0.5872265696525574,-1.7365128993988037,0.4841623306274414
1714858337758966300,2.09996630859375,-0.8045403361320496,-1.7077507972717285,0.6567350625991821
1714858337768915700,2.109915771484375,-1.0058752298355103,-1.5181338787078857,0.879375159740448
1714858337778865400,2.119865478515625,-1.1379679441452026,-1.278449535369873,1.0700572729110718
1714858337788814800,2.12981494140625,-1.13370680809021,-1.1314431428909302,1.2159984111785889
1714858337798764300,2.139764404296875,-1.0357025861740112,-1.040895700454712,1.3065458536148071
1714858337808713700,2.149713623046875,-0.923849880695343,-0.9450219869613647,1.3427648544311523
1714858337818663200,2.1596630859375,-0.8375635147094727,-0.8672577738761902,1.3065458536148071
1714858337828612600,2.169612548828125,-0.8077361583709717,-0.7149250507354736,1.1829752922058105
1714858337838562300,2.179562255859375,-0.8077361583709717,-0.5189165472984314,1.0828404426574707
1714858337848511700,2.18951171875,-0.8098666667938232,-0.3623228073120117,1.0412951707839966
1714858337858461200,2.199461181640625,-0.8141277432441711,-0.32823434472084045,1.0189247131347656
1714858337868410600,2.20941064453125,-0.7502118945121765,-0.31332066655158997,1.0476868152618408
1714858337878360000,2.219360107421875,-0.60533607006073,-0.33675646781921387,1.1371688842773438
1714858337888309500,2.2293095703125,-0.4487423002719879,-0.41345545649528503,1.1669963598251343
1714858337898259000,2.239259033203125,-0.32410645484924316,-0.5359607934951782,1.0615352392196655
1714858337908208600,2.249208740234375,-0.32943278551101685,-0.7447524666786194,0.8367645740509033
1714858337918158000,2.259157958984375,-0.4221107065677643,-0.9077377915382385,0.5534044504165649
1714858337928107500,2.269107421875,-0.4828307330608368,-0.9748494029045105,0.36059173941612244
1714858337938057000,2.279056884765625,-0.4828307330608368,-1.0217210054397583,0.335025429725647
1714858337948006400,2.28900634765625,-0.4540686309337616,-1.0131988525390625,0.4223770201206207
1714858337957955800,2.298955810546875,-0.4721781015396118,-0.8661925196647644,0.5534044504165649
1714858337967905300,2.3089052734375,-0.4956139028072357,-0.591354489326477,0.7014760971069336
1714858337977855000,2.31885498046875,-0.48070022463798523,-0.16737954318523407,0.8133288025856018
1714858337987804400,2.328804443359375,-0.46152547001838684,0.3034669756889343,0.8836361765861511
1714858337997753900,2.33875390625,-0.4455465078353882,0.6827008128166199,0.9017456769943237
1714858338007703300,2.348703369140625,-0.40932756662368774,0.865926206111908,0.8239814043045044
1714858338017652700,2.35865283203125,-0.39121806621551514,0.7455514073371887,0.6279729008674622
1714858338027602200,2.368602294921875,-0.38056543469429016,0.42916807532310486,0.31372013688087463
1714858338037551900,2.3785517578125,-0.32943278551101685,0.09467530250549316,-0.034621067345142365
1714858338047501300,2.388501220703125,-0.29214856028556824,-0.2600574791431427,-0.35526543855667114
1714858338057450800,2.39845068359375,-0.30599698424339294,-0.5689839720726013,-0.6599308252334595
1714858338067400200,2.408400146484375,-0.3549990952014923,-0.8182556629180908,-0.9379646182060242
1714858338077349600,2.418349609375,-0.40400123596191406,-0.9791104197502136,-1.156343698501587
1714858338087299000,2.428299072265625,-0.4391549229621887,-1.0121335983276367,-1.2671310901641846
1714858338097248500,2.43824853515625,-0.4498075842857361,-0.9173251390457153,-1.2681963443756104
1714858338107198200,2.4481982421875,-0.406131774187088,-0.7095987200737,-1.190432071685791
1714858338117147600,2.458147705078125,-0.2996053993701935,-0.4816323220729828,-1.0423604249954224
1714858338127097000,2.46809716796875,-0.16857796907424927,-0.30479857325553894,-0.8388951420783997
1714858338137046500,2.478046630859375,-0.0727042406797409,-0.1993374526500702,-0.6332992315292358
1714858338146996000,2.487995849609375,-0.03755054250359535,-0.14820480346679688,-0.5118591785430908
1714858338156945400,2.4979453125,-0.07057371735572815,-0.15885743498802185,-0.5363602638244629
1714858338166895000,2.50789501953125,-0.1994706094264984,-0.26112276315689087,-0.6940192580223083
1714858338176844500,2.517844482421875,-0.3688475489616394,-0.3527354300022125,-0.9017456769943237
1714858338186794000,2.5277939453125,-0.48389601707458496,-0.545548141002655,-1.0945583581924438
1714858338196743400,2.537743408203125,-0.5052012801170349,-0.8970851302146912,-1.2969584465026855
1714858338206692900,2.54769287109375,-0.4764391779899597,-1.229447364807129,-1.5025544166564941
1714858338216642300,2.557642333984375,-0.43702441453933716,-1.399889588356018,-1.654887080192566
1714858338226591700,2.567591796875,-0.3784348964691162,-1.4009548425674438,-1.6932365894317627
1714858338236541400,2.57754150390625,-0.30173593759536743,-1.3061463832855225,-1.5973628759384155
1714858338246491000,2.587490966796875,-0.24421168863773346,-1.203881025314331,-1.4354428052902222
1714858338256440300,2.5974404296875,-0.19627483189105988,-1.0739189386367798,-1.2799142599105835
1714858338266389800,2.6073896484375,-0.17283903062343597,-0.8512787818908691,-1.1446257829666138
1714858338276339200,2.617339111328125,-0.22184115648269653,-0.5466133952140808,-1.0040110349655151
1714858338286288600,2.62728857421875,-0.3177148699760437,-0.23768694698810577,-0.8325035572052002
1714858338296238300,2.63723828125,-0.37630438804626465,-0.01717737689614296,-0.6663224101066589
1714858338306187800,2.647187744140625,-0.3656517565250397,0.02756369672715664,-0.6056023836135864
1714858338316137200,2.65713720703125,-0.3613906800746918,-0.2653838098049164,-0.8261119723320007
1714858338326086700,2.667086669921875,-0.27830013632774353,-0.3399522602558136,-1.059404730796814
1714858338336036000,2.6770361328125,-0.10040109604597092,-0.20040272176265717,-1.1052110195159912
1714858338345985500,2.686985595703125,0.016777902841567993,-0.1237037405371666,-1.059404730796814
1714858338355935000,2.69693505859375,0.035952646285295486,-0.0949416235089302,-0.9869667887687683
1714858338365884700,2.706884765625,-0.05566002428531647,-0.026764748618006706,-0.9219856858253479
1714858338375834000,2.716834228515625,-0.15899059176445007,0.140481635928154,-0.7728487849235535
1714858338385783600,2.726783447265625,-0.25379905104637146,0.28322696685791016,-0.45326969027519226
1714858338395733000,2.73673291015625,-0.3965443968772888,0.38229650259017944,-0.046338967978954315
1714858338405682400,2.746682373046875,-0.5424855351448059,0.4888228476047516,0.28495803475379944
1714858338415632000,2.7566318359375,-0.6639255881309509,0.6091976165771484,0.5118591785430908
1714858338425581600,2.76658154296875,-0.7342329621315002,0.7668566703796387,0.7025413513183594
1714858338435531000,2.776531005859375,-0.7076013684272766,0.9937578439712524,0.8974846005439758
1714858338445480400,2.78648046875,-0.5755086541175842,1.214267373085022,1.056208848953247
1714858338455430000,2.796429931640625,-0.35286858677864075,1.372991681098938,1.136103630065918
1714858338465379300,2.80637939453125,-0.1525990217924118,1.464604377746582,1.1914973258972168
1714858338475328800,2.816328857421875,-0.105727419257164,1.4614086151123047,1.1893668174743652
1714858338485278200,2.8262783203125,-0.14088112115859985,1.2728569507598877,1.0434256792068481
1714858338495228000,2.836227783203125,-0.24421168863773346,0.8211851119995117,0.7898929715156555
1714858338505177300,2.84617724609375,-0.35819488763809204,0.3247722387313843,0.5193160176277161
1714858338515126800,2.856126708984375,-0.4029359817504883,-0.11837742477655411,0.3201117217540741
1714858338525076200,2.866076171875,-0.40080544352531433,-0.3548659384250641,0.2828274965286255
1714858338535025700,2.876025634765625,-0.425306499004364,-0.3069290816783905,0.3850927948951721
1714858338544975000,2.88597509765625,-0.4881570637226105,-0.0715058222413063,0.5118591785430908
1714858338554924800,2.8959248046875,-0.5552686452865601,0.22783325612545013,0.6162550449371338
1714858338564874200,2.905874267578125,-0.6042708158493042,0.46219125390052795,0.683366596698761
1714858338574823700,2.91582373046875,-0.5904223918914795,0.610262930393219,0.7259771823883057
1714858338584773400,2.9257734375,-0.5254412889480591,0.7327682375907898,0.7760445475578308
1714858338594722800,2.935722900390625,-0.45193809270858765,0.8435556292533875,0.7803056240081787
1714858338604672500,2.945672607421875,-0.3699128031730652,0.8957535624504089,0.745151937007904
1714858338614622000,2.9556220703125,-0.3123885691165924,0.8030756115913391,0.6641919016838074
1714858338624571400,2.9655712890625,-0.2836264371871948,0.631568193435669,0.5203812718391418
1714858338634521000,2.97552099609375,-0.2697780132293701,0.4227765202522278,0.33609068393707275
1714858338644470500,2.985470458984375,-0.25379905104637146,0.22250694036483765,0.12090742588043213
1714858338654420000,2.995419921875,-0.21651484072208405,-0.01717737689614296,-0.11025478690862656
1714858338664369700,3.00536962890625,-0.15472954511642456,-0.09920267760753632,-0.3020022511482239
1714858338674319000,3.015319091796875,-0.0588558167219162,-0.01717737689614296,-0.3957454562187195
1714858338684268500,3.0252685546875,0.025300011038780212,0.009454214945435524,-0.4287686049938202
1714858338694218200,3.03521826171875,0.0636495053768158,0.09361004084348679,-0.40639808773994446
1714858338704167700,3.045167724609375,0.0913463607430458,0.1639174371957779,-0.35952648520469666
1714858338714117000,3.0551171875,0.08495477586984634,0.1724395453929901,-0.31798118352890015
1714858338724066800,3.06506689453125,0.03808317333459854,0.08508793264627457,-0.2817622423171997
1714858338734016300,3.075016357421875,-0.027963170781731606,-0.03741738572716713,-0.22956430912017822
1714858338743965700,3.084965576171875,-0.10040109604597092,-0.15459638833999634,-0.14966954290866852
1714858338753915400,3.094915283203125,-0.19414429366588593,-0.20146799087524414,-0.054861076176166534
1714858338763864800,3.10486474609375,-0.3134538233280182,-0.11198583990335464,0.03675159439444542
1714858338773814500,3.114814453125,-0.4103928208351135,0.041412122547626495,0.0985368862748146
1714858338783764000,3.124763916015625,-0.41358861327171326,0.07017423957586288,0.11025478690862656
1714858338793713400,3.13471337890625,-0.3134538233280182,-0.0033289489801973104,0.06870950758457184
1714858338803663000,3.1446630859375,-0.15153375267982483,-0.06617950648069382,-0.004793686326593161
1714858338813612500,3.154612548828125,0.0018642114009708166,-0.07789740711450577,-0.07936213910579681
1714858338823562000,3.16456201171875,0.09773793816566467,-0.03635212033987045,-0.1411474347114563
1714858338833511700,3.17451171875,0.1339569091796875,0.021172115579247475,-0.1741705983877182
1714858338843461000,3.184461181640625,0.1201084777712822,0.07550056278705597,-0.19228008389472961
1714858338853410600,3.19441064453125,0.06684529036283493,0.15006901323795319,-0.221042200922966
1714858338863360300,3.2043603515625,0.023169483989477158,0.27044379711151123,-0.2530001103878021
1714858338873309700,3.214309814453125,0.03914843872189522,0.36418700218200684,-0.25086960196495056
1714858338883259100,3.224259033203125,0.10945583879947662,0.4547344148159027,-0.2018674612045288
1714858338893208600,3.23420849609375,0.2191779911518097,0.4696480929851532,-0.08255793154239655
1714858338903158000,3.244157958984375,0.3214432895183563,0.430233359336853,0.059122130274772644
1714858338913107500,3.254107421875,0.3491401672363281,0.40999335050582886,0.12197268754243851
1714858338923057000,3.264056884765625,0.3352917432785034,0.35033857822418213,0.07297056168317795
1714858338933006600,3.274006591796875,0.3448790907859802,0.1777658760547638,-0.02396843209862709
1714858338942956000,3.2839560546875,0.36724963784217834,-0.09707214683294296,-0.12303794920444489
1714858338952905500,3.293905517578125,0.372575968503952,-0.3719101548194885,-0.23702116310596466
1714858338962855000,3.30385498046875,0.3491401672363281,-0.5679186582565308,-0.3776359558105469
1714858338972804400,3.313804443359375,0.3033338189125061,-0.6350302696228027,-0.5161202549934387
1714858338982753800,3.32375390625,0.251135915517807,-0.5870934128761292,-0.5917539596557617
1714858338992703500,3.333703369140625,0.18935060501098633,-0.5412870645523071,-0.5747097134590149
1714858339002653000,3.34365283203125,0.1296958476305008,-0.48269757628440857,-0.464987576007843
1714858339012602400,3.353602294921875,0.07856319099664688,-0.25260064005851746,-0.3243727684020996
1714858339022551800,3.3635517578125,0.08388951420783997,0.06058686971664429,-0.154995858669281
1714858339032501200,3.373501220703125,0.16378428041934967,0.12769848108291626,0.05699160322546959
1714858339042450700,3.38345068359375,0.24794010818004608,0.012650005519390106,0.2625874876976013
1714858339052400000,3.393400146484375,0.2692453861236572,-0.02569948509335518,0.3659180700778961
1714858339062349800,3.403349853515625,0.2372874766588211,-0.04061317816376686,0.3755054473876953
1714858339072299300,3.41329931640625,0.18295903503894806,-0.05233107507228851,0.3158506751060486
1714858339082248700,3.423248779296875,0.12330426275730133,-0.04913528636097908,0.23382537066936493
1714858339092198100,3.4331982421875,0.07217161357402802,-0.05659212917089462,0.17630113661289215
1714858339102147600,3.443147705078125,0.035952646285295486,-0.08322372287511826,0.11664637178182602
1714858339112097000,3.453096923828125,0.019973693415522575,-0.09281109273433685,0.027164222672581673
1714858339122046700,3.463046630859375,0.02210422046482563,-0.1002679392695427,-0.0942758321762085
1714858339131996200,3.47299609375,0.03701791167259216,-0.08855003863573074,-0.19867166876792908
1714858339141945600,3.482945556640625,0.06578002870082855,-0.1279647946357727,-0.25726115703582764
1714858339151895000,3.49289501953125,0.09028109163045883,-0.1663142889738083,-0.26684853434562683
1714858339161844500,3.502844482421875,0.11158636957406998,-0.20466378331184387,-0.2487390637397766
1714858339171794000,3.5127939453125,0.1296958476305008,-0.21425114572048187,-0.2018674612045288
1714858339181743400,3.522743408203125,0.14993585646152496,-0.180162712931633,-0.1358211189508438
1714858339191693000,3.532693115234375,0.16591481864452362,-0.10559425503015518,-0.04740423336625099
1714858339201642500,3.542642578125,0.17550218105316162,0.0019973693415522575,0.04846949502825737
1714858339211592000,3.552592041015625,0.19148114323616028,0.1117195263504982,0.12303794920444489
1714858339221541400,3.562541259765625,0.204264298081398,0.18522271513938904,0.1699095517396927
1714858339231490800,3.57249072265625,0.2191779911518097,0.22570273280143738,0.1784316599369049
1714858339241440300,3.582440185546875,0.2277000993490219,0.22996379435062408,0.1454084813594818
1714858339251390000,3.592389892578125,0.21491694450378418,0.2012016773223877,0.07190529257059097
1714858339261339400,3.60233935546875,0.18189376592636108,0.14687322080135345,-0.010120004415512085
1714858339271288800,3.612288818359375,0.1573926955461502,0.04460791498422623,-0.06018739566206932
1714858339281238300,3.62223828125,0.1573926955461502,-0.03741738572716713,-0.08042740821838379
1714858339291187700,3.632187744140625,0.16484954953193665,-0.07257108390331268,-0.08255793154239655
1714858339301137200,3.64213720703125,0.17869797348976135,-0.0576573945581913,-0.08575372397899628
1714858339311086600,3.652086669921875,0.20106850564479828,-0.0011984215816482902,-0.08681898564100266
1714858339321036300,3.662036376953125,0.22663484513759613,0.057391077280044556,-0.07723161578178406
1714858339330985700,3.67198583984375,0.25326642394065857,0.10958899557590485,-0.05699160322546959
1714858339340935200,3.68193505859375,0.2745717167854309,0.1543300747871399,-0.03675159439444542
1714858339350884600,3.691884521484375,0.2841590642929077,0.1916143000125885,-0.026098959147930145
1714858339360834000,3.701833984375,0.29161593317985535,0.20439745485782623,-0.037816859781742096
1714858339370783500,3.711783447265625,0.28628960251808167,0.18096165359020233,-0.05592634156346321
1714858339380733200,3.721733154296875,0.25859275460243225,0.13622058928012848,-0.061252661049366
1714858339390682600,3.7316826171875,0.2287653684616089,0.09147951751947403,-0.061252661049366
1714858339400632000,3.741632080078125,0.204264298081398,0.04460791498422623,-0.06338318437337875
1714858339410581500,3.75158154296875,0.19254639744758606,0.0009321057004854083,-0.07190529257059097
1714858339420531000,3.761531005859375,0.18722008168697357,-0.022503694519400597,-0.07936213910579681
1714858339430480400,3.77148046875,0.17869797348976135,-0.02463422156870365,-0.08255793154239655
1714858339440429800,3.781429931640625,0.17337165772914886,-0.02143843099474907,-0.08681898564100266
1714858339450379500,3.791379638671875,0.16165375709533691,-0.013981585390865803,-0.08681898564100266
1714858339460329000,3.801328857421875,0.14034847915172577,-0.011851058341562748,-0.08149266988039017
1714858339470278400,3.8112783203125,0.11904320865869522,-0.022503694519400597,-0.07829687744379044
1714858339480227800,3.821227783203125,0.10199899226427078,-0.02889527566730976,-0.07190529257059097
1714858339490177300,3.83117724609375,0.09028109163045883,-0.0342215932905674,-0.05273054912686348
1714858339500126700,3.841126708984375,0.08495477586984634,-0.03209106624126434,-0.03142527863383293
1714858339510076400,3.851076416015625,0.08175898343324661,-0.016112113371491432,0.0015978955198079348
1714858339520025900,3.86102587890625,0.07430213689804077,0.014780532568693161,0.03568633273243904
1714858339529975300,3.870975341796875,0.0679105594754219,0.0456731803715229,0.058056868612766266
1714858339539924700,3.8809248046875,0.05938844755291939,0.061652131378650665,0.058056868612766266
1714858339549874200,3.890874267578125,0.04660528525710106,0.06804371625185013,0.04101264849305153
1714858339559823600,3.90082373046875,0.03808317333459854,0.05952160432934761,0.018642114475369453
1714858339569773000,3.91077294921875,0.03275685757398605,0.048868969082832336,-0.013315795920789242
1714858339579722800,3.92072265625,0.03169159218668938,0.041412122547626495,-0.04101264849305153
1714858339589672200,3.930672119140625,0.03701791167259216,0.016911059617996216,-0.059122130274772644
1714858339599621600,3.94062158203125,0.05832318589091301,-0.01078579481691122,-0.062317922711372375
1714858339609571000,3.950571044921875,0.09560741484165192,-0.042743705213069916,-0.05273054912686348
1714858339619520500,3.9605205078125,0.12650005519390106,-0.06191844865679741,-0.038882121443748474
1714858339629470000,3.970469970703125,0.138217955827713,-0.04913528636097908,-0.03249054029583931
1714858339639419600,3.980419677734375,0.13502216339111328,-0.018242640420794487,-0.03142527863383293
1714858339649369000,3.990369140625,0.12223900109529495,0.012650005519390106,-0.034621067345142365
1714858339659318500,4.000318603515625,0.10412952303886414,0.037151068449020386,-0.037816859781742096
1714858339669268000,4.01026806640625,0.09560741484165192,0.048868969082832336,-0.04314317926764488
1714858339679217400,4.020217529296875,0.09773793816566467,0.048868969082832336,-0.05273054912686348
1714858339689166800,4.030166748046875,0.10626004636287689,0.04247738793492317,-0.06870950758457184
1714858339699116300,4.0401162109375,0.12117373943328857,0.032890014350414276,-0.09001477807760239
1714858339709066000,4.05006591796875,0.14674006402492523,0.013715269044041634,-0.11132004857063293
1714858339719015400,4.060015380859375,0.16804534196853638,-0.009720530360937119,-0.12303794920444489
1714858339728964900,4.06996484375,0.17550218105316162,-0.016112113371491432,-0.12197268754243851
1714858339738914300,4.079914306640625,0.15632744133472443,-0.005459476262331009,-0.11132004857063293
1714858339748864000,4.089864013671875,0.11904320865869522,0.01584579609334469,-0.09747162461280823
1714858339758813400,4.0998134765625,0.07536740601062775,0.02756369672715664,-0.08149266988039017
1714858339768763000,4.109762939453125,0.04127896577119827,0.028628960251808167,-0.061252661049366
1714858339778712600,4.119712646484375,0.019973693415522575,0.02756369672715664,-0.03568633273243904
1714858339788662000,4.129662109375,0.010386320762336254,0.028628960251808167,-0.02396843209862709
1714858339798611500,4.139611572265625,0.003994738683104515,0.03928159549832344,-0.017576850950717926
1714858339808561200,4.14956103515625,0.009321057237684727,0.04673844203352928,-0.017576850950717926
1714858339818510600,4.159510498046875,0.03701791167259216,0.04034686088562012,-0.01438105944544077
1714858339828460000,4.1694599609375,0.0636495053768158,0.01904158666729927,-0.011185267940163612
1714858339838409700,4.17940966796875,0.0732368752360344,0.005193160381168127,-0.01651158556342125
1714858339848359200,4.189359130859375,0.05832318589091301,0.005193160381168127,-0.026098959147930145
1714858339858308900,4.199308837890625,0.029561065137386322,0.013715269044041634,-0.03142527863383293
1714858339868258300,4.20925830078125,0.009321057237684727,0.017976323142647743,-0.03142527863383293
1714858339878207700,4.219207763671875,0.0018642114009708166,0.009454214945435524,-0.027164222672581673
1714858339888157400,4.229157470703125,0.0018642114009708166,-0.006524739786982536,-0.01651158556342125
1714858339898107000,4.23910693359375,0.002929474925622344,-0.019307903945446014,-0.004793686326593161
1714858339908056300,4.249056396484375,-0.0034621069207787514,-0.018242640420794487,0.002663159044459462
1714858339918006000,4.259006103515625,-0.01837579719722271,0.003062632866203785,0.010120004415512085
1714858339927955500,4.26895556640625,-0.026897907257080078,0.02330264262855053,0.020772641524672508
1714858339937905000,4.27890478515625,-0.02583264373242855,0.03502054139971733,0.03142527863383293
1714858339947854600,4.2888544921875,-0.01837579719722271,0.03821633383631706,0.037816859781742096
1714858339957804000,4.298803955078125,-0.013049479573965073,0.037151068449020386,0.03568633273243904
1714858339967753500,4.30875341796875,-0.008788425475358963,0.03928159549832344,0.021837905049324036
1714858339977703200,4.318703125,-0.007723161485046148,0.03502054139971733,0.002663159044459462
1714858339987652600,4.328652587890625,-0.0023968431632965803,0.02649843320250511,-0.011185267940163612
1714858339997602300,4.338602294921875,0.010386320762336254,0.01584579609334469,-0.017576850950717926
1714858340007551700,4.3485517578125,0.021038956940174103,0.005193160381168127,-0.018642114475369453
1714858340017501200,4.358501220703125,0.024234747514128685,0.005193160381168127,-0.015446322970092297
1714858340027451000,4.368450927734375,0.019973693415522575,0.008388951420783997,-0.00798947736620903
1714858340037400300,4.378400390625,0.013582111336290836,0.020106852054595947,0.0015978955198079348
1714858340047349800,4.388349853515625,0.008255792781710625,0.03502054139971733,0.00798947736620903
1714858340057299200,4.39829931640625,0.009321057237684727,0.04780370742082596,0.010120004415512085
1714858340067248600,4.40824853515625,0.016777902841567993,0.057391077280044556,0.002663159044459462
1714858340077198300,4.4181982421875,0.028495801612734795,0.05419528856873512,-0.013315795920789242
1714858340087147800,4.428147705078125,0.03808317333459854,0.04780370742082596,-0.034621067345142365
1714858340097097200,4.43809716796875,0.04127896577119827,0.032890014350414276,-0.04740423336625099
1714858340107046700,4.448046630859375,0.04127896577119827,0.01904158666729927,-0.04740423336625099
1714858340116996000,4.45799609375,0.040213704109191895,0.016911059617996216,-0.03568633273243904
1714858340126945500,4.467945556640625,0.04127896577119827,0.02330264262855053,-0.013315795920789242
1714858340136895000,4.47789501953125,0.04127896577119827,0.032890014350414276,0.010120004415512085
1714858340146844700,4.4878447265625,0.035952646285295486,0.04247738793492317,0.029294749721884727
1714858340156794000,4.497794189453125,0.025300011038780212,0.04993423447012901,0.037816859781742096
1714858340166743600,4.50774365234375,0.012516847811639309,0.0552605502307415,0.033555805683135986
1714858340176693000,4.51769287109375,0.003994738683104515,0.05632581561803818,0.01438105944544077
1714858340186642400,4.527642333984375,0.0018642114009708166,0.05845634266734123,-0.0015978955198079348
1714858340196591900,4.537591796875,0.008255792781710625,0.057391077280044556,-0.006924213841557503
1714858340206541600,4.54754150390625,0.025300011038780212,0.032890014350414276,-0.004793686326593161
1714858340216491000,4.557490966796875,0.04980107396841049,-0.00013315795513335615,-0.002663159044459462
1714858340226440400,4.5674404296875,0.06471476703882217,-0.020373167470097542,-0.005858949851244688
1714858340236390000,4.577389892578125,0.06151897460222244,-0.02143843099474907,-0.011185267940163612
1714858340246339300,4.58733935546875,0.04660528525710106,-0.00013315795513335615,-0.01651158556342125
1714858340256288800,4.597288818359375,0.023169483989477158,0.02756369672715664,-0.017576850950717926
1714858340266238200,4.60723828125,0.002929474925622344,0.04460791498422623,-0.015446322970092297
1714858340276188000,4.61718798828125,-0.007723161485046148,0.048868969082832336,-0.0037284228019416332
1714858340286137300,4.627137451171875,-0.008788425475358963,0.053130023181438446,0.005858949851244688
1714858340296086800,4.637086669921875,0.0018642114009708166,0.04780370742082596,0.0037284228019416332
1714858340306036200,4.6470361328125,0.015712639316916466,0.04034686088562012,-0.004793686326593161
1714858340315985700,4.656985595703125,0.023169483989477158,0.041412122547626495,-0.01651158556342125
1714858340325935000,4.66693505859375,0.025300011038780212,0.04247738793492317,-0.026098959147930145
1714858340335884800,4.676884765625,0.025300011038780212,0.029694223776459694,-0.029294749721884727
1714858340345834200,4.686834228515625,0.024234747514128685,0.013715269044041634,-0.03142527863383293
1714858340355783700,4.69678369140625,0.02210422046482563,0.005193160381168127,-0.034621067345142365
1714858340365733000,4.706733154296875,0.024234747514128685,0.0009321057004854083,-0.029294749721884727
1714858340375682600,4.7166826171875,0.024234747514128685,0.007323687430471182,-0.01651158556342125
1714858340385632000,4.726632080078125,0.015712639316916466,0.024367906153202057,0.002663159044459462
1714858340395581400,4.73658154296875,0.00612526573240757,0.04247738793492317,0.01651158556342125
1714858340405531100,4.74653125,0.002929474925622344,0.053130023181438446,0.020772641524672508
1714858340415480600,4.75648046875,0.00612526573240757,0.05099949613213539,0.017576850950717926
1714858340425430000,4.766429931640625,0.016777902841567993,0.02756369672715664,0.004793686326593161
1714858340435379500,4.77637939453125,0.030626330524683,-0.009720530360937119,-0.017576850950717926
1714858340445329000,4.786328857421875,0.03275685757398605,-0.031025802716612816,-0.03568633273243904
1714858340455278300,4.7962783203125,0.024234747514128685,-0.02889527566730976,-0.04314317926764488
1714858340465228000,4.80622802734375,0.016777902841567993,-0.016112113371491432,-0.03675159439444542
1714858340475177500,4.816177490234375,0.02210422046482563,-0.01078579481691122,-0.022903168573975563
1714858340485127000,4.826126953125,0.03275685757398605,-0.0033289489801973104,-0.0037284228019416332
1714858340495076400,4.836076416015625,0.040213704109191895,0.014780532568693161,0.005858949851244688
1714858340505025800,4.84602587890625,0.035952646285295486,0.03075948730111122,0.009054740890860558
1714858340514975200,4.855975341796875,0.02636527456343174,0.03928159549832344,0.01225053146481514
1714858340524924700,4.865924560546875,0.01784316636621952,0.04354264959692955,0.017576850950717926
1714858340534874400,4.875874267578125,0.016777902841567993,0.04673844203352928,0.020772641524672508
1714858340544823800,4.88582373046875,0.021038956940174103,0.053130023181438446,0.01970737800002098
1714858340554773200,4.895773193359375,0.02636527456343174,0.048868969082832336,0.01438105944544077
1714858340564722700,4.90572265625,0.030626330524683,0.024367906153202057,0.0015978955198079348
1714858340574672100,4.915672119140625,0.030626330524683,0.004127896390855312,-0.01438105944544077
1714858340584621600,4.92562158203125,0.023169483989477158,-0.007590003311634064,-0.029294749721884727
1714858340594571300,4.9355712890625,0.014647374860942364,-0.01078579481691122,-0.03675159439444542
1714858340604520700,4.945520751953125,0.00612526573240757,-0.013981585390865803,-0.03142527863383293
1714858340614470100,4.95547021484375,0.002929474925622344,-0.011851058341562748,-0.01651158556342125
1714858340624419600,4.965419677734375,-0.0023968431632965803,-0.0011984215816482902,-0.0005326318205334246
1714858340634369000,4.975369140625,-0.004527370445430279,0.010519478470087051,0.00798947736620903
1714858340644318500,4.985318359375,-0.0002663159102667123,0.01904158666729927,0.00798947736620903
1714858340654268000,4.995267822265625,0.0050600022077560425,0.01904158666729927,0.002663159044459462
1714858340664217600,5.005217529296875,0.008255792781710625,0.01904158666729927,-0.0015978955198079348
1714858340674167000,5.0151669921875,0.009321057237684727,0.020106852054595947,-0.005858949851244688
1714858340684116500,5.025116455078125,0.008255792781710625,0.017976323142647743,-0.002663159044459462
1714858340694066000,5.03506591796875,0.00612526573240757,0.009454214945435524,0.010120004415512085
1714858340704015400,5.045015380859375,0.0007989477599039674,0.010519478470087051,0.01651158556342125
1714858340713964800,5.05496484375,-0.0034621069207787514,0.009454214945435524,0.01225053146481514
1714858340723914200,5.064914306640625,-0.0023968431632965803,0.0062584239058196545,0.01225053146481514
1714858340733864000,5.074864013671875,-0.004527370445430279,-0.0011984215816482902,0.011185267940163612
1714858340743813400,5.0848134765625,-0.006657897960394621,-0.006524739786982536,0.009054740890860558
1714858340753762800,5.0947626953125,-0.010918952524662018,-0.005459476262331009,0.010120004415512085
1714858340763712300,5.104712158203125,-0.015180006623268127,0.0009321057004854083,0.013315795920789242
1714858340773661700,5.11466162109375,-0.016245270147919655,0.0062584239058196545,0.013315795920789242
1714858340783611100,5.124611083984375,-0.0141147430986166,0.0019973693415522575,0.00798947736620903
1714858340793560800,5.134560791015625,-0.013049479573965073,-0.008655266836285591,0.002663159044459462
1714858340803510300,5.14451025390625,-0.010918952524662018,-0.016112113371491432,-0.002663159044459462
1714858340813459700,5.154459716796875,-0.00985368900001049,-0.016112113371491432,-0.006924213841557503
1714858340823409200,5.1644091796875,-0.005592633970081806,-0.005459476262331009,-0.005858949851244688
1714858340833358600,5.174358642578125,0.0007989477599039674,0.0062584239058196545,0.002663159044459462
1714858340843308000,5.18430810546875,0.008255792781710625,0.014780532568693161,0.011185267940163612
1714858340853257500,5.194257568359375,0.014647374860942364,0.014780532568693161,0.015446322970092297
1714858340863207200,5.204207275390625,0.016777902841567993,0.004127896390855312,0.011185267940163612
1714858340873156600,5.214156494140625,0.013582111336290836,-0.006524739786982536,-0.0005326318205334246
1714858340883106000,5.22410595703125,0.008255792781710625,-0.02143843099474907,-0.010120004415512085
1714858340893055500,5.234055419921875,0.002929474925622344,-0.03209106624126434,-0.01438105944544077
1714858340903005000,5.2440048828125,-0.0023968431632965803,-0.035286858677864075,-0.009054740890860558
1714858340912954400,5.253954345703125,-0.001331579522229731,-0.022503694519400597,0.0015978955198079348
1714858340922904000,5.263904052734375,0.008255792781710625,-0.006524739786982536,0.011185267940163612
1714858340932853500,5.273853515625,0.01784316636621952,-0.0022636852227151394,0.018642114475369453
1714858340942803000,5.283802978515625,0.023169483989477158,0.005193160381168127,0.022903168573975563
1714858340952752400,5.29375244140625,0.025300011038780212,0.013715269044041634,0.020772641524672508
1714858340962701800,5.303701904296875,0.030626330524683,0.016911059617996216,0.01225053146481514
1714858340972651300,5.3136513671875,0.03275685757398605,0.01584579609334469,0.0005326318205334246
1714858340982600700,5.3236005859375,0.03169159218668938,0.016911059617996216,-0.010120004415512085
1714858340992550400,5.33355029296875,0.03169159218668938,0.011584741994738579,-0.013315795920789242
1714858341002499800,5.343499755859375,0.03701791167259216,0.007323687430471182,-0.01225053146481514
1714858341012449300,5.35344921875,0.044474758207798004,-0.00013315795513335615,-0.002663159044459462
1714858341022398700,5.363398681640625,0.05299686640501022,-0.005459476262331009,0.01225053146481514
1714858341032348200,5.37334814453125,0.0540621280670166,0.0009321057004854083,0.026098959147930145
1714858341042297600,5.383297607421875,0.048735812306404114,0.012650005519390106,0.03568633273243904
1714858341052247300,5.393247314453125,0.04767054691910744,0.025433169677853584,0.03675159439444542
1714858341062196700,5.40319677734375,0.05512739345431328,0.03075948730111122,0.03142527863383293
1714858341072146200,5.413146240234375,0.06578002870082855,0.02649843320250511,0.018642114475369453
1714858341082095600,5.423095703125,0.0732368752360344,0.021172115579247475,0.0005326318205334246
1714858341092045000,5.433045166015625,0.07536740601062775,0.013715269044041634,-0.01438105944544077
1714858341101994500,5.442994384765625,0.07217161357402802,0.0062584239058196545,-0.02396843209862709
1714858341111944000,5.45294384765625,0.06578002870082855,0.0009321057004854083,-0.02396843209862709
1714858341121893600,5.4628935546875,0.06151897460222244,-0.0043942127376794815,-0.01651158556342125
1714858341131843000,5.472843017578125,0.06151897460222244,-0.013981585390865803,-0.005858949851244688
1714858341141792500,5.48279248046875,0.05725792050361633,-0.01504684891551733,0.002663159044459462
1714858341151742000,5.492741943359375,0.05193160101771355,-0.01504684891551733,0.005858949851244688
1714858341161691400,5.50269140625,0.04660528525710106,-0.01078579481691122,0.00798947736620903
1714858341171640800,5.512640869140625,0.04554001986980438,-0.0033289489801973104,0.00798947736620903
1714858341181590500,5.522590576171875,0.04554001986980438,-0.0011984215816482902,0.009054740890860558
1714858341191540000,5.5325400390625,0.04660528525710106,-0.0022636852227151394,0.01225053146481514
1714858341201489400,5.542489501953125,0.04554001986980438,-0.006524739786982536,0.013315795920789242
1714858341211438800,5.55243896484375,0.040213704109191895,-0.0033289489801973104,0.01225053146481514
1714858341221388300,5.56238818359375,0.03488738462328911,-0.0043942127376794815,0.013315795920789242
1714858341231337700,5.572337646484375,0.027430538088083267,-0.008655266836285591,0.013315795920789242
1714858341241287200,5.582287109375,0.016777902841567993,-0.012916321866214275,0.01225053146481514
1714858341251236900,5.59223681640625,0.007190529722720385,-0.011851058341562748,0.015446322970092297
1714858341261186300,5.602186279296875,0.0050600022077560425,-0.0043942127376794815,0.01970737800002098
1714858341271135700,5.6121357421875,0.008255792781710625,0.004127896390855312,0.020772641524672508
1714858341281085200,5.622085205078125,0.014647374860942364,0.011584741994738579,0.01438105944544077
1714858341291034600,5.63203466796875,0.024234747514128685,0.014780532568693161,0.0015978955198079348
1714858341300984000,5.641984130859375,0.03808317333459854,0.011584741994738579,-0.006924213841557503
1714858341310933800,5.651933837890625,0.044474758207798004,0.007323687430471182,-0.010120004415512085
1714858341320883200,5.66188330078125,0.03701791167259216,0.009454214945435524,-0.010120004415512085
1714858341330832600,5.67183251953125,0.01784316636621952,0.014780532568693161,-0.013315795920789242
1714858341340782000,5.681781982421875,-0.001331579522229731,0.016911059617996216,-0.021837905049324036
1714858341350731500,5.6917314453125,-0.008788425475358963,0.005193160381168127,-0.027164222672581673
1714858341360681000,5.701680908203125,-0.0002663159102667123,-0.020373167470097542,-0.03142527863383293
1714858341370630400,5.71163037109375,0.01784316636621952,-0.059787921607494354,-0.03675159439444542
1714858341380580000,5.721580078125,0.030626330524683,-0.08961530029773712,-0.04314317926764488
1714858341390529500,5.731529541015625,0.027430538088083267,-0.08961530029773712,-0.058056868612766266
1714858341400479000,5.74147900390625,0.02636527456343174,-0.06937529146671295,-0.08255793154239655
1714858341410428400,5.751428466796875,0.02210422046482563,-0.05446160212159157,-0.10599373281002045
1714858341420377900,5.7613779296875,0.0007989477599039674,-0.01504684891551733,-0.1507348120212555
1714858341430327300,5.771327392578125,0.03275685757398605,0.01584579609334469,-0.15606112778186798
1714858341440277000,5.781277099609375,0.0774979293346405,0.004127896390855312,-0.10173267871141434
1714858341450226400,5.791226318359375,0.09880319982767105,0.022237379103899002,-0.046338967978954315
1714858341460176000,5.80117578125,0.10306425392627716,0.05206476151943207,-0.006924213841557503
1714858341470125300,5.811125244140625,0.10626004636287689,0.074435293674469,0.013315795920789242
1714858341480074800,5.82107470703125,0.1201084777712822,0.09147951751947403,0.022903168573975563
1714858341490024200,5.831024169921875,0.14034847915172577,0.10532794147729874,0.026098959147930145
1714858341499973600,5.8409736328125,0.17443692684173584,0.10958899557590485,0.027164222672581673
1714858341509923300,5.85092333984375,0.204264298081398,0.10958899557590485,0.025033695623278618
1714858341519872800,5.860872802734375,0.22450430691242218,0.1117195263504982,0.018642114475369453
1714858341529822200,5.870822265625,0.2330264151096344,0.11704584211111069,0.002663159044459462
1714858341539771600,5.880771728515625,0.23941799998283386,0.11704584211111069,-0.013315795920789242
1714858341549721000,5.89072119140625,0.2426137924194336,0.10958899557590485,-0.022903168573975563
1714858341559670500,5.90067041015625,0.24154852330684662,0.10106688737869263,-0.034621067345142365
1714858341569620000,5.910619873046875,0.23622220754623413,0.08934898674488068,-0.042077913880348206
1714858341579569700,5.920569580078125,0.2330264151096344,0.06697845458984375,-0.04314317926764488
1714858341589519000,5.93051904296875,0.2287653684616089,0.0552605502307415,-0.038882121443748474
1714858341599468500,5.940468505859375,0.22450430691242218,0.057391077280044556,-0.03675159439444542
1714858341609418000,5.95041796875,0.20639483630657196,0.05632581561803818,-0.042077913880348206
1714858341619367400,5.960367431640625,0.1808284968137741,0.07230477035045624,-0.0516652874648571
1714858341629316900,5.97031689453125,0.16058848798274994,0.08508793264627457,-0.054861076176166534
1714858341639266600,5.9802666015625,0.15632744133472443,0.09254477918148041,-0.054861076176166534
1714858341649216000,5.990216064453125,0.1627190262079239,0.0978710949420929,-0.054861076176166534
1714858341659165400,6.00016552734375,0.1669800728559494,0.09361004084348679,-0.05592634156346321
1714858341669115000,6.010114990234375,0.17550218105316162,0.0786963477730751,-0.050600022077560425
1714858341679064300,6.020064208984375,0.17443692684173584,0.07337003201246262,-0.04846949502825737
1714858341689013800,6.030013671875,0.16484954953193665,0.07763108611106873,-0.046338967978954315
1714858341698963200,6.039963134765625,0.15845796465873718,0.09361004084348679,-0.037816859781742096
1714858341708913000,6.049912841796875,0.15952323377132416,0.11491531878709793,-0.018642114475369453
1714858341718862300,6.0598623046875,0.16165375709533691,0.12982900440692902,0.01438105944544077
1714858341728811800,6.069811767578125,0.1627190262079239,0.15006901323795319,0.0516652874648571
1714858341738761200,6.07976123046875,0.16484954953193665,0.18096165359020233,0.08681898564100266
1714858341748710700,6.089710693359375,0.1712411344051361,0.2012016773223877,0.12197268754243851
1714858341758660000,6.09966015625,0.18189376592636108,0.22144168615341187,0.14327795803546906
1714858341768609800,6.10960986328125,0.20213377475738525,0.23955115675926208,0.14860427379608154
1714858341778559200,6.119559326171875,0.23515695333480835,0.23955115675926208,0.14434322714805603
1714858341788508400,6.12950830078125,0.28735485672950745,0.20972378551959991,0.1315600574016571
1714858341798457900,6.139457763671875,0.3416832983493805,0.1628521829843521,0.09747162461280823
1714858341808407300,6.1494072265625,0.3789675533771515,0.13195952773094177,0.046338967978954315
1714858341818356700,6.159356689453125,0.391750693321228,0.130894273519516,-0.006924213841557503
1714858341828306200,6.16930615234375,0.3928159773349762,0.15965639054775238,-0.046338967978954315
1714858341838255600,6.179255615234375,0.3970770239830017,0.195875346660614,-0.06657897680997849
1714858341848205000,6.189205078125,0.40027281641960144,0.21931114792823792,-0.08362319320440292
1714858341858154500,6.199154541015625,0.4077296555042267,0.23529011011123657,-0.08575372397899628
1714858341868104000,6.20910400390625,0.42903491854667664,0.22783325612545013,-0.06444845348596573
1714858341878053400,6.219053466796875,0.4546012580394745,0.1916143000125885,-0.03142527863383293
1714858341888002800,6.2290029296875,0.4769718050956726,0.1447426974773407,-0.0005326318205334246
1714858341897952300,6.2389521484375,0.4876244366168976,0.11598058044910431,0.020772641524672508
1714858341907901700,6.248901611328125,0.48016759753227234,0.12982900440692902,0.042077913880348206
1714858341917851100,6.25885107421875,0.4641886353492737,0.19267955422401428,0.06338318437337875
1714858341927800600,6.268800537109375,0.44714441895484924,0.28429222106933594,0.07829687744379044
1714858341937750000,6.27875,0.4301002025604248,0.38655754923820496,0.08788424730300903
1714858341947699500,6.288699462890625,0.4173170328140259,0.5069323182106018,0.11132004857063293
1714858341957649000,6.29864892578125,0.42370861768722534,0.6209155321121216,0.154995858669281
1714858341967598300,6.308598388671875,0.46525388956069946,0.6731134653091431,0.20293273031711578
1714858341977547500,6.318547607421875,0.5238434076309204,0.6475471258163452,0.2263685166835785
1714858341987497000,6.3284970703125,0.5813676118850708,0.5964145064353943,0.22210747003555298
1714858341997446400,6.3384462890625,0.5994771122932434,0.5484775900840759,0.1976063996553421
1714858342007395800,6.348395751953125,0.580302357673645,0.497344970703125,0.16138744354248047
1714858342017345300,6.35834521484375,0.5408875942230225,0.4547344148159027,0.11345057934522629
1714858342027294700,6.368294677734375,0.48549389839172363,0.4355596601963043,0.08255793154239655
1714858342037244200,6.378244140625,0.4301002025604248,0.42916807532310486,0.06338318437337875
1714858342047193600,6.388193603515625,0.39494648575782776,0.4174501895904541,0.04527370631694794
1714858342057143000,6.39814306640625,0.38962018489837646,0.3929491341114044,0.033555805683135986
1714858342067092500,6.408092529296875,0.4024033546447754,0.35886070132255554,0.027164222672581673
1714858342077042000,6.4180419921875,0.43329599499702454,0.308793306350708,0.00798947736620903
1714858342086991400,6.427991455078125,0.47590652108192444,0.29814067482948303,-0.01225053146481514
1714858342096940800,6.43794091796875,0.5089297294616699,0.33009856939315796,0.0037284228019416332
1714858342106890200,6.44789013671875,0.5334307551383972,0.3652522563934326,0.062317922711372375
1714858342116840000,6.45783984375,0.5462139248847961,0.3791007101535797,0.13262532651424408
1714858342126789400,6.467789306640625,0.5302349925041199,0.3652522563934326,0.18695376813411713
1714858342136738800,6.47773876953125,0.5025381445884705,0.32157647609710693,0.22743378579616547
1714858342146688300,6.487688232421875,0.48016759753227234,0.23102904856204987,0.2689790725708008
1714858342156637700,6.4976376953125,0.44714441895484924,0.13195952773094177,0.30306750535964966
1714858342166587100,6.507587158203125,0.41305598616600037,0.10852373391389847,0.3211769759654999
1714858342176536800,6.517536865234375,0.391750693321228,0.1628521829843521,0.32756856083869934
1714858342186486300,6.527486328125,0.37151068449020386,0.29387959837913513,0.3147853910923004
1714858342196435700,6.537435791015625,0.33955278992652893,0.47177863121032715,0.26578328013420105
1714858342206385200,6.54738525390625,0.3129211962223053,0.5932186841964722,0.19973693788051605
1714858342216334600,6.55733447265625,0.3352917432785034,0.5932186841964722,0.15606112778186798
1714858342226284000,6.567283935546875,0.40559911727905273,0.4611259996891022,0.1411474347114563
1714858342236233500,6.5772333984375,0.46631917357444763,0.2288985252380371,0.11984215676784515
1714858342246183200,6.58718310546875,0.45566651225090027,-0.016112113371491432,0.04101264849305153
1714858342256132600,6.597132568359375,0.35340121388435364,-0.15459638833999634,-0.12410321086645126
1714858342266082000,6.60708203125,0.2841590642929077,-0.11092057824134827,-0.30413275957107544
1714858342276031500,6.617031494140625,0.29268118739128113,0.007323687430471182,-0.43516018986701965
1714858342285981000,6.62698095703125,0.30972540378570557,0.09041424840688705,-0.5384907722473145
1714858342295930400,6.636930419921875,0.34807488322257996,0.22250694036483765,-0.6183855533599854
1714858342305880000,6.646880126953125,0.34381383657455444,0.37697017192840576,-0.65353924036026
1714858342315829500,6.65682958984375,0.36724963784217834,0.5122586488723755,-0.6130592226982117
1714858342325779000,6.666779052734375,0.43223071098327637,0.5282375812530518,-0.5097286701202393
1714858342335728400,6.676728271484375,0.46205809712409973,0.3567301630973816,-0.3392864763736725
1714858342345677800,6.686677734375,0.45673179626464844,0.2810964286327362,-0.15712638199329376
1714858342355627300,6.696627197265625,0.44288337230682373,0.3364901542663574,-0.03249054029583931
1714858342365576700,6.70657666015625,0.3960117697715759,0.44940808415412903,0.005858949851244688
1714858342375526400,6.7165263671875,0.31931278109550476,0.5878923535346985,-0.04420844092965126
1714858342385475800,6.726475830078125,0.2660495936870575,0.7072018980979919,-0.12836426496505737
1714858342395425300,6.73642529296875,0.2522011697292328,0.6848313808441162,-0.211454838514328
1714858342405374700,6.746374755859375,0.2713759243488312,0.5996102690696716,-0.2828274965286255
1714858342415324200,6.75632421875,0.3086601495742798,0.497344970703125,-0.31798118352890015
1714858342425273600,6.766273681640625,0.3235738277435303,0.4643217921257019,-0.3307643532752991
1714858342435223000,6.77622314453125,0.3129211962223053,0.5207807421684265,-0.3051980435848236
1714858342445172700,6.7861728515625,0.2841590642929077,0.6294376254081726,-0.20825904607772827
1714858342455122200,6.7961220703125,0.2660495936870575,0.6912229657173157,-0.06764423847198486
1714858342465071600,6.806071533203125,0.2649843394756317,0.6305029392242432,0.009054740890860558
1714858342475021000,6.81602099609375,0.2372874766588211,0.5175849795341492,-0.00798947736620903
1714858342484970500,6.825970458984375,0.17763271927833557,0.3940143883228302,-0.042077913880348206
1714858342494920000,6.835919921875,0.12650005519390106,0.2725743353366852,-0.04101264849305153
1714858342504869600,6.84586962890625,0.11371689289808273,0.1735048145055771,-0.05592634156346321
1714858342514819000,6.855819091796875,0.14141374826431274,0.10745847225189209,-0.1315600574016571
1714858342524768500,6.8657685546875,0.16911059617996216,0.05845634266734123,-0.2348906397819519
1714858342534718000,6.875718017578125,0.1723063886165619,-0.00013315795513335615,-0.34141698479652405
1714858342544667400,6.88566748046875,0.17017586529254913,-0.059787921607494354,-0.4287686049938202
1714858342554616800,6.895616943359375,0.18508955836296082,-0.19188061356544495,-0.47350969910621643
1714858342564566300,6.905566162109375,0.20106850564479828,-0.40386807918548584,-0.47350969910621643
1714858342574516000,6.915515869140625,0.19893798232078552,-0.5679186582565308,-0.44900861382484436
1714858342584465400,6.92546533203125,0.17550218105316162,-0.7074682116508484,-0.41065913438796997
1714858342594414800,6.935414794921875,0.13289164006710052,-0.7820366621017456,-0.3680485785007477
1714858342604364300,6.9453642578125,0.07962846010923386,-0.8118640780448914,-0.31372013688087463
1714858342614313700,6.955313720703125,0.05725792050361633,-0.801211416721344,-0.26152223348617554
1714858342624263200,6.96526318359375,0.07217161357402802,-0.7596661448478699,-0.221042200922966
1714858342634212900,6.975212890625,0.10839057713747025,-0.6467481851577759,-0.19547587633132935
1714858342644162300,6.985162353515625,0.15419691801071167,-0.545548141002655,-0.16245271265506744
1714858342654111700,6.99511181640625,0.17443692684173584,-0.480567067861557,-0.10705899447202682
1714858342664061200,7.005061279296875,0.16911059617996216,-0.4283691346645355,-0.033555805683135986
1714858342674010600,7.0150107421875,0.17869797348976135,-0.4091944098472595,0.05592634156346321
1714858342683960000,7.0249599609375,0.19361166656017303,-0.4624575674533844,0.1368863731622696
1714858342693909500,7.034909423828125,0.1669800728559494,-0.5103944540023804,0.18908429145812988
1714858342703859200,7.044859130859375,0.06151897460222244,-0.5242428779602051,0.2167811542749405
1714858342713808600,7.05480859375,-0.04713791608810425,-0.5189165472984314,0.22317273914813995
1714858342723758000,7.064758056640625,-0.2751043438911438,-0.45500072836875916,0.18162745237350464
1714858342733707500,7.07470751953125,-0.3454117476940155,-0.28455856442451477,0.09321057051420212
1714858342743657000,7.084656982421875,-0.18668745458126068,-0.21638168394565582,0.030360013246536255
1714858342753606400,7.0946064453125,-0.06631266325712204,-0.29095011949539185,0.018642114475369453
1714858342763556000,7.10455615234375,-0.08442214131355286,-0.3814975321292877,0.022903168573975563
1714858342773505500,7.114505615234375,-0.14407691359519958,-0.4624575674533844,-0.013315795920789242
1714858342783455000,7.124455078125,-0.1898832470178604,-0.4848281145095825,-0.08362319320440292
1714858342793404400,7.134404296875,-0.25486433506011963,-0.5061333775520325,-0.13369058072566986
1714858342803353900,7.144353759765625,-0.33369383215904236,-0.566853404045105,-0.14327795803546906
1714858342813303300,7.15430322265625,-0.3826959729194641,-0.6925545334815979,-0.11984215676784515
1714858342823252700,7.164252685546875,-0.35819488763809204,-0.8800409436225891,-0.0846884623169899
1714858342833202400,7.174202392578125,-0.24847275018692017,-1.0100030899047852,-0.07936213910579681
1714858342843152000,7.18415185546875,-0.07376950979232788,-0.9578051567077637,-0.11984215676784515
1714858342853101300,7.194101318359375,0.11904320865869522,-0.8161250948905945,-0.16138744354248047
1714858342863050800,7.20405078125,0.24794010818004608,-0.8363651037216187,-0.16138744354248047
1714858342873000200,7.214000244140625,0.24794010818004608,-0.9663273096084595,-0.13901691138744354
1714858342882949600,7.22394970703125,0.14247901737689972,-1.1112031936645508,-0.14434322714805603
1714858342892899300,7.2338994140625,-0.02583264373242855,-1.241165280342102,-0.1837579756975174
1714858342902848800,7.243848876953125,-0.237820103764534,-1.2986894845962524,-0.24660852551460266
1714858342912798200,7.253798095703125,-0.4551338851451874,-1.341300129890442,-0.32756856083869934
1714858342922747600,7.26374755859375,-0.6500771641731262,-1.3796495199203491,-0.44581282138824463
1714858342932697000,7.273697021484375,-0.8290414214134216,-1.085636854171753,-0.5789707899093628
1714858342942646500,7.283646484375,-1.0058752298355103,-0.5167860388755798,-0.5811012983322144
1714858342952596000,7.293595947265625,-1.0783131122589111,0.0648479238152504,-0.354200154542923
1714858342962545700,7.303545654296875,-0.9366330504417419,0.29707539081573486,0.04101264849305153
1714858342972495000,7.3134951171875,-0.680969774723053,0.40999335050582886,0.464987576007843
1714858342982444500,7.323444580078125,-0.4434159994125366,0.5996102690696716,0.8346340656280518
1714858342992394000,7.33339404296875,-0.284691721200943,0.7285071611404419,1.0828404426574707
1714858343002343400,7.343343505859375,-0.20586219429969788,0.61878502368927,1.1765836477279663
1714858343012292900,7.35329296875,-0.228232741355896,0.2960101366043091,1.1084067821502686
1714858343022242300,7.3632421875,-0.3880222737789154,0.04034686088562012,0.9209204316139221
1714858343032191700,7.373191650390625,-0.6916224360466003,-0.06085318699479103,0.6684529185295105
1714858343042141200,7.38314111328125,-1.0431593656539917,-0.10772478580474854,0.40746334195137024
1714858343052090600,7.393090576171875,-1.3606079816818237,-0.08428898453712463,0.18908429145812988
1714858343062040000,7.4030400390625,-1.5438333749771118,0.13195952773094177,0.021837905049324036
1714858343071989500,7.412989501953125,-1.5395722389221191,0.5154544711112976,-0.07297056168317795
1714858343081939000,7.42293896484375,-1.389370083808899,0.9575388431549072,-0.04101264849305153
1714858343091888400,7.432888427734375,-1.153946876525879,1.255812644958496,0.11132004857063293
1714858343101837800,7.442837890625,-0.8833698630332947,1.3218590021133423,0.3659180700778961
1714858343111787300,7.452787353515625,-0.6255760788917542,1.3250547647476196,0.586427628993988
1714858343121736700,7.46273681640625,-0.44128546118736267,1.3346421718597412,0.6013413071632385
1714858343131686100,7.47268603515625,-0.31451907753944397,1.2398337125778198,0.47350969910621643
1714858343141635600,7.482635498046875,-0.2804306447505951,0.9681915044784546,0.332894891500473
1714858343151585000,7.4925849609375,-0.34434646368026733,0.5974797606468201,0.18588849902153015
1714858343161534500,7.502534423828125,-0.40080544352531433,0.1447426974773407,-0.002663159044459462
1714858343171484000,7.51248388671875,-0.40080544352531433,-0.30479857325553894,-0.22849905490875244
1714858343181433300,7.522433349609375,-0.33795487880706787,-0.7159903049468994,-0.43409493565559387
1714858343191382500,7.532382568359375,-0.23995064198970795,-1.1239862442016602,-0.5960150361061096
1714858343201332000,7.54233203125,-0.1898832470178604,-1.4563485383987427,-0.7707182168960571
1714858343211281400,7.552281494140625,-0.17070849239826202,-1.6108118295669556,-0.8932235836982727
1714858343221230800,7.56223095703125,-0.12703268229961395,-1.6374434232711792,-0.9155941009521484
1714858343231180300,7.57218017578125,-0.10679268091917038,-1.5106769800186157,-0.8655267357826233
1714858343241129700,7.582129638671875,-0.10040109604597092,-1.2763190269470215,-0.7472824454307556
1714858343251079200,7.5920791015625,-0.08335687965154648,-1.1048115491867065,-0.6173202991485596
1714858343261028600,7.602028564453125,-0.07909582555294037,-0.8246471881866455,-0.49161916971206665
1714858343270978000,7.61197802734375,-0.06205160543322563,-0.575375497341156,-0.3765707015991211
1714858343280927500,7.621927490234375,-0.03435475379228592,-0.41771650314331055,-0.3446127772331238
1714858343290877000,7.631876953125,-0.03009369783103466,-0.24727432429790497,-0.3659180700778961
1714858343300826400,7.641826416015625,-0.060986343771219254,-0.114116370677948,-0.34567806124687195
1714858343310775800,7.65177587890625,-0.07163897901773453,-0.008655266836285591,-0.27537065744400024
1714858343320725200,7.661725341796875,-0.04500738903880119,-0.07683213800191879,-0.1741705983877182
1714858343330674700,7.6716748046875,-0.031158961355686188,-0.2451438009738922,-0.08362319320440292
1714858343340624100,7.6816240234375,-0.03968106955289841,-0.4326302111148834,-0.013315795920789242
1714858343350573600,7.691573486328125,-0.06418213248252869,-0.5508744716644287,0.020772641524672508
1714858343360523000,7.70152294921875,-0.06311687082052231,-0.5530049800872803,0.017576850950717926
1714858343370472400,7.711472412109375,-0.09614004194736481,-0.4858933687210083,0.004793686326593161
1714858343380422000,7.721421875,-0.1909485012292862,-0.36977964639663696,-0.002663159044459462
1714858343390371300,7.731371337890625,-0.29640960693359375,-0.2174469381570816,0.004793686326593161
1714858343400320800,7.74132080078125,-0.37736964225769043,-0.10346373170614243,0.04420844092965126
1714858343410270200,7.751270263671875,-0.4487423002719879,-0.03315633162856102,0.09108003973960876
1714858343420220000,7.761219970703125,-0.48922231793403625,-0.007590003311634064,0.12623374164104462
1714858343430169300,7.77116943359375,-0.492418110370636,-0.02143843099474907,0.14753901958465576
1714858343440118800,7.781118896484375,-0.4689823091030121,-0.047004759311676025,0.16245271265506744
1714858343450068200,7.791068115234375,-0.435959130525589,-0.06298371404409409,0.15180006623268127
1714858343460017700,7.801017578125,-0.3699128031730652,-0.07363634556531906,0.13795164227485657
1714858343469967000,7.810967041015625,-0.29214856028556824,-0.10879004746675491,0.1464737504720688
1714858343479916500,7.82091650390625,-0.22503694891929626,-0.1748363971710205,0.16351796686649323
1714858343489866200,7.8308662109375,-0.17496955394744873,-0.20679430663585663,0.16351796686649323
1714858343499815700,7.840815673828125,-0.1760348230600357,-0.16951008141040802,0.1411474347114563
1714858343509765000,7.85076513671875,-0.23142851889133453,-0.05020054802298546,0.11132004857063293
1714858343519714600,7.860714599609375,-0.3081275224685669,0.074435293674469,0.1358211189508438
1714858343529664000,7.8706640625,-0.3837612271308899,0.15006901323795319,0.24128220975399017
1714858343539613400,7.880613525390625,-0.47004759311676025,0.16711322963237762,0.3850927948951721
1714858343549563100,7.890563232421875,-0.5573992133140564,0.15539532899856567,0.5097286701202393
1714858343559512600,7.9005126953125,-0.5872265696525574,0.0978710949420929,0.599210798740387
1714858343569462000,7.9104619140625,-0.5701823830604553,0.013715269044041634,0.6439518928527832
1714858343579411500,7.920411376953125,-0.5531381368637085,-0.048070020973682404,0.6109287142753601
1714858343589361000,7.93036083984375,-0.5211802124977112,-0.06937529146671295,0.502271831035614
1714858343599310300,7.940310302734375,-0.4689823091030121,-0.05020054802298546,0.3488738536834717
1714858343609259800,7.950259765625,-0.40400123596191406,-0.04593949392437935,0.19228008389472961
1714858343619209500,7.96020947265625,-0.3326285779476166,-0.0906805694103241,0.0655137151479721
1714858343629159000,7.970158935546875,-0.2665822207927704,-0.14927007257938385,-0.034621067345142365
1714858343639108400,7.9801083984375,-0.21651484072208405,-0.21212062239646912,-0.1177116334438324
1714858343649057800,7.990057861328125,-0.1909485012292862,-0.24407853186130524,-0.18056218326091766
1714858343659007200,8.00000732421875,-0.1952095627784729,-0.24194800853729248,-0.21465063095092773
1714858343668956700,8.009956787109376,-0.237820103764534,-0.20999009907245636,-0.21252009272575378
1714858343678906400,8.01990625,-0.31451907753944397,-0.16205322742462158,-0.19121482968330383
1714858343688855800,8.029855712890624,-0.4029359817504883,-0.10239847004413605,-0.15606112778186798
1714858343698805200,8.03980517578125,-0.46152547001838684,-0.08748477697372437,-0.1177116334438324
1714858343708754700,8.049754638671875,-0.46046021580696106,-0.1279647946357727,-0.09001477807760239
1714858343718704000,8.0597041015625,-0.416784405708313,-0.1748363971710205,-0.08255793154239655
1714858343728653600,8.069653564453125,-0.35393384099006653,-0.2035985141992569,-0.09640636295080185
1714858343738603000,8.07960302734375,-0.29108327627182007,-0.2078595608472824,-0.1368863731622696
1714858343748552700,8.089552734375,-0.23462431132793427,-0.180162712931633,-0.19441060721874237
1714858343758502100,8.099502197265625,-0.19307903945446014,-0.13648690283298492,-0.24767379462718964
1714858343768451600,8.10945166015625,-0.1813611388206482,-0.08322372287511826,-0.276435911655426
1714858343778401000,8.119401123046876,-0.20692746341228485,-0.006524739786982536,-0.2721748650074005
1714858343788350500,8.1293505859375,-0.2527337968349457,0.06058686971664429,-0.2306295782327652
1714858343798300000,8.1392998046875,-0.2878875136375427,0.09041424840688705,-0.16777902841567993
1714858343808249300,8.149249267578124,-0.3081275224685669,0.074435293674469,-0.09214530140161514
1714858343818199000,8.159198974609374,-0.31984540820121765,-0.01078579481691122,-0.002663159044459462
1714858343828148500,8.1691484375,-0.3315632939338684,-0.06511423736810684,0.07190529257059097
1714858343838098000,8.179097900390625,-0.3549990952014923,-0.0715058222413063,0.12090742588043213
1714858343848047400,8.18904736328125,-0.38056543469429016,-0.07257108390331268,0.13901691138744354
1714858343857996800,8.198996826171875,-0.3741738498210907,-0.07576687633991241,0.12942953407764435
1714858343867946200,8.2089462890625,-0.32517173886299133,-0.07789740711450577,0.1177116334438324
1714858343877896000,8.21889599609375,-0.2474074810743332,-0.0949416235089302,0.10918952524662018
1714858343887845400,8.228845458984376,-0.16005586087703705,-0.10985531657934189,0.08149266988039017
1714858343897794800,8.238794921875,-0.09081372618675232,-0.09174583107233047,0.030360013246536255
1714858343907744300,8.248744140625,-0.07590003311634064,-0.0715058222413063,-0.03994738683104515
1714858343917693700,8.258693603515624,-0.11318425834178925,-0.05659212917089462,-0.11664637178182602
1714858343927643100,8.26864306640625,-0.16964323818683624,-0.051265813410282135,-0.16245271265506744
1714858343937592600,8.278592529296875,-0.2090579867362976,-0.09174583107233047,-0.1592569202184677
1714858343947542300,8.288542236328125,-0.23036326467990875,-0.11092057824134827,-0.12197268754243851
1714858343957491700,8.29849169921875,-0.23462431132793427,-0.08748477697372437,-0.06764423847198486
1714858343967441200,8.308441162109375,-0.23462431132793427,-0.05446160212159157,-0.017576850950717926
1714858343977390600,8.318390625,-0.23888537287712097,0.0009321057004854083,0.00798947736620903
1714858343987340000,8.328340087890625,-0.24527695775032043,0.0786963477730751,0.010120004415512085
1714858343997289500,8.33828955078125,-0.23142851889133453,0.12982900440692902,-0.0005326318205334246
1714858344007239200,8.3482392578125,-0.18455693125724792,0.13409006595611572,-0.021837905049324036
1714858344017188600,8.358188720703126,-0.12170637398958206,0.09680583328008652,-0.06764423847198486
1714858344027138000,8.368137939453124,-0.06737792491912842,0.130894273519516,-0.1368863731622696
1714858344037087500,8.37808740234375,-0.023702116683125496,0.18948377668857574,-0.19547587633132935
1714858344047037000,8.388036865234374,0.002929474925622344,0.12982900440692902,-0.18695376813411713
1714858344056986400,8.397986328125,0.0050600022077560425,0.07123950868844986,-0.1368863731622696
1714858344066935800,8.407935791015625,-0.001331579522229731,0.048868969082832336,-0.06870950758457184
1714858344076885500,8.417885498046875,-0.008788425475358963,0.04780370742082596,-0.011185267940163612
1714858344086835000,8.4278349609375,-0.00985368900001049,0.06058686971664429,0.0005326318205334246
1714858344096784400,8.437784423828125,0.0007989477599039674,0.07017423957586288,-0.03142527863383293
1714858344106733800,8.44773388671875,0.019973693415522575,0.08082687854766846,-0.09108003973960876
1714858344116683300,8.457683349609376,0.025300011038780212,0.12237215787172318,-0.15180006623268127
1714858344126632700,8.4676328125,0.024234747514128685,0.17670060694217682,-0.1880190372467041
1714858344136582100,8.47758203125,0.021038956940174103,0.2619217038154602,-0.221042200922966
1714858344146531300,8.48753125,0.011451584286987782,0.3599259555339813,-0.2775011658668518
1714858344156480800,8.497480712890624,-0.007723161485046148,0.4131891429424286,-0.343547523021698
1714858344166430200,8.50743017578125,-0.0354200154542923,0.44940808415412903,-0.4181159734725952
1714858344176379600,8.517379638671875,-0.07057371735572815,0.5367597341537476,-0.5044023394584656
1714858344186329000,8.5273291015625,-0.105727419257164,0.6294376254081726,-0.5842971205711365
1714858344196278500,8.537278564453125,-0.13235901296138763,0.6581997871398926,-0.6471476554870605
1714858344206228000,8.54722802734375,-0.1579253375530243,0.6262418627738953,-0.6759097576141357
1714858344216177400,8.557177490234375,-0.17283903062343597,0.5111933946609497,-0.6631265878677368
1714858344226126800,8.567126953125,-0.16857796907424927,0.31092381477355957,-0.6109287142753601
1714858344236076300,8.577076171875,-0.13662005960941315,0.03928159549832344,-0.5395560264587402
1714858344246025700,8.587025634765626,-0.09720530360937119,-0.17909744381904602,-0.47777074575424194
1714858344255975200,8.59697509765625,-0.06418213248252869,-0.3250385820865631,-0.4362254738807678
1714858344265924600,8.606924560546876,-0.05352949723601341,-0.44647863507270813,-0.4032022953033447
1714858344275874000,8.6168740234375,-0.06737792491912842,-0.5498092174530029,-0.37017911672592163
1714858344285823500,8.626823486328124,-0.10679268091917038,-0.5945502519607544,-0.34141698479652405
1714858344295773000,8.63677294921875,-0.16112112998962402,-0.537026047706604,-0.3147853910923004
1714858344305722400,8.646722412109375,-0.2186453640460968,-0.42304283380508423,-0.276435911655426
1714858344315671800,8.656671875,-0.26764747500419617,-0.2888196110725403,-0.2253032624721527
1714858344325621200,8.666621337890625,-0.27190855145454407,-0.2035985141992569,-0.18482324481010437
1714858344335570700,8.67657080078125,-0.2143843024969101,-0.16418376564979553,-0.17736639082431793
1714858344345519900,8.686519775390625,-0.12809795141220093,-0.11092057824134827,-0.20612850785255432
1714858344355469300,8.69646923828125,-0.05459476262331009,-0.09387636184692383,-0.25086960196495056
1714858344365418800,8.706418701171875,-0.0141147430986166,-0.14500901103019714,-0.3020022511482239
1714858344375368200,8.7163681640625,-0.0034621069207787514,-0.23555642366409302,-0.3520696461200714
1714858344385317600,8.726317626953126,-0.019441060721874237,-0.3218427896499634,-0.3904191255569458
1714858344395267000,8.73626708984375,-0.07483477145433426,-0.36019226908683777,-0.4181159734725952
1714858344405216500,8.746216552734374,-0.16112112998962402,-0.3580617308616638,-0.43409493565559387
1714858344415166000,8.756166015625,-0.24421168863773346,-0.32397329807281494,-0.43516018986701965
1714858344425115400,8.766115478515625,-0.3091927766799927,-0.27710169553756714,-0.4223770201206207
1714858344435064800,8.77606494140625,-0.3454117476940155,-0.23768694698810577,-0.3946801722049713
1714858344445014300,8.78601416015625,-0.33475908637046814,-0.23449115455150604,-0.3669833242893219
1714858344454963700,8.795963623046875,-0.27403905987739563,-0.22916483879089355,-0.3488738536834717
1714858344464913200,8.8059130859375,-0.1760348230600357,-0.2035985141992569,-0.34993910789489746
1714858344474862600,8.815862548828125,-0.06311687082052231,-0.16418376564979553,-0.36485278606414795
1714858344484812000,8.82581201171875,0.04234423115849495,-0.13009531795978546,-0.3808317482471466
1714858344494761500,8.835761474609376,0.138217955827713,-0.10879004746675491,-0.3850927948951721
1714858344504711000,8.8457109375,0.22130851447582245,-0.1322258561849594,-0.36911386251449585
1714858344514660400,8.855660400390626,0.28628960251808167,-0.17164060473442078,-0.3382211923599243
1714858344524610000,8.865610107421874,0.3257043659687042,-0.18229323625564575,-0.3094590902328491
1714858344534559500,8.8755595703125,0.33848753571510315,-0.1652490198612213,-0.276435911655426
1714858344544509000,8.885509033203125,0.32463908195495605,-0.1375521719455719,-0.23382537066936493
1714858344554458400,8.895458251953125,0.2980075180530548,-0.13542163372039795,-0.17949692904949188
1714858344564407800,8.90540771484375,0.2692453861236572,-0.13116058707237244,-0.1272990107536316
1714858344574357200,8.915357177734375,0.2468748539686203,-0.07683213800191879,-0.0846884623169899
1714858344584306700,8.925306640625,0.24048326909542084,-0.005459476262331009,-0.04740423336625099
1714858344594256400,8.93525634765625,0.2426137924194336,0.022237379103899002,0.0015978955198079348
1714858344604205800,8.945205810546875,0.24474431574344635,-0.005459476262331009,0.062317922711372375
1714858344614155300,8.9551552734375,0.24580958485603333,-0.02889527566730976,0.12516847252845764
1714858344624104700,8.965104736328126,0.251135915517807,-0.005459476262331009,0.1784316599369049
1714858344634054100,8.97505419921875,0.25859275460243225,0.041412122547626495,0.21784640848636627
1714858344644003600,8.985003662109374,0.2692453861236572,0.07230477035045624,0.24554327130317688
1714858344653953300,8.994953369140624,0.27670222520828247,0.07656582444906235,0.25726115703582764
1714858344663902700,9.00490283203125,0.270310640335083,0.10958899557590485,0.2540653645992279
1714858344673852200,9.01485205078125,0.2553969621658325,0.1639174371957779,0.25193485617637634
1714858344683801600,9.024801513671875,0.2468748539686203,0.2150501012802124,0.2530001103878021
1714858344693751000,9.0347509765625,0.25965800881385803,0.28748801350593567,0.24767379462718964
1714858344703700500,9.044700439453125,0.2884201407432556,0.27470487356185913,0.24341274797916412
1714858344713650000,9.05464990234375,0.3075948655605316,0.19907113909721375,0.24767379462718964
1714858344723599600,9.064599609375,0.3118559420108795,0.11065425723791122,0.24660852551460266
1714858344733549000,9.074549072265626,0.30546435713768005,0.014780532568693161,0.23702116310596466
1714858344743498500,9.08449853515625,0.29587697982788086,-0.0033289489801973104,0.211454838514328
1714858344753448000,9.094447998046874,0.280963271856308,0.048868969082832336,0.1784316599369049
1714858344763397400,9.1043974609375,0.25859275460243225,0.08508793264627457,0.154995858669281
1714858344773346800,9.114346923828125,0.23835274577140808,0.1394163817167282,0.13901691138744354
1714858344783296500,9.124296630859375,0.2372874766588211,0.28322696685791016,0.10279794037342072
1714858344793246000,9.134245849609375,0.251135915517807,0.38229650259017944,0.058056868612766266
1714858344803195400,9.1441953125,0.2607232630252838,0.3514038324356079,0.03249054029583931
1714858344813144800,9.154144775390625,0.24900537729263306,0.2587259113788605,0.02396843209862709
1714858344823094300,9.16409423828125,0.21598219871520996,0.1490037590265274,0.022903168573975563
1714858344833043700,9.174043701171875,0.1765674501657486,0.057391077280044556,0.01970737800002098
1714858344842993200,9.1839931640625,0.1478053331375122,-0.02889527566730976,0.022903168573975563
1714858344852942800,9.19394287109375,0.12330426275730133,-0.1428784877061844,0.04101264849305153
1714858344862892300,9.203892333984374,0.1009337306022644,-0.25686168670654297,0.07403582334518433
1714858344872841700,9.213841796875,0.08602003753185272,-0.28668907284736633,0.10599373281002045
1714858344882791200,9.223791259765624,0.08815056830644608,-0.23449115455150604,0.13369058072566986
1714858344892740600,9.23374072265625,0.11265163123607635,-0.14927007257938385,0.15180006623268127
1714858344902690000,9.24368994140625,0.148870587348938,-0.05659212917089462,0.14966954290866852
1714858344912639700,9.2536396484375,0.18295903503894806,0.02756369672715664,0.11984215676784515
1714858344922589200,9.263589111328125,0.20639483630657196,0.07337003201246262,0.06977476924657822
1714858344932538600,9.27353857421875,0.22024326026439667,0.08082687854766846,0.009054740890860558
1714858344942488000,9.283488037109375,0.22024326026439667,0.07230477035045624,-0.053795814514160156
1714858344952437500,9.2934375,0.2000032514333725,0.05632581561803818,-0.10705899447202682
1714858344962387000,9.303386962890626,0.16911059617996216,0.0062584239058196545,-0.1358211189508438
1714858344972336400,9.31333642578125,0.11691268533468246,-0.14927007257938385,-0.11345057934522629
1714858344982286000,9.3232861328125,0.04660528525710106,-0.25366589426994324,-0.050600022077560425
1714858344992235500,9.333235595703124,-0.010918952524662018,-0.25792697072029114,0.01438105944544077
1714858345002185000,9.34318505859375,-0.02263685315847397,-0.24940484762191772,0.06870950758457184
1714858345012134400,9.353134521484375,0.00612526573240757,-0.22596904635429382,0.10066741704940796
1714858345022083800,9.363083740234375,0.05193160101771355,-0.1663142889738083,0.10705899447202682
1714858345032033300,9.373033203125,0.09880319982767105,-0.09920267760753632,0.0942758321762085
1714858345041983000,9.38298291015625,0.12863057851791382,-0.05339634045958519,0.06977476924657822
1714858345051932400,9.392932373046875,0.12863057851791382,-0.009720530360937119,0.03675159439444542
1714858345061881900,9.4028818359375,0.10732531547546387,0.025433169677853584,0.00798947736620903
1714858345071831300,9.412831298828126,0.08388951420783997,0.02649843320250511,-0.01438105944544077
1714858345081780700,9.42278076171875,0.06578002870082855,-0.011851058341562748,-0.021837905049324036
1714858345091730200,9.432730224609376,0.04767054691910744,-0.10559425503015518,-0.013315795920789242
1714858345101679600,9.4426796875,0.024234747514128685,-0.15353111922740936,-0.009054740890860558
1714858345111629000,9.452629150390624,0.0007989477599039674,-0.15353111922740936,-0.0037284228019416332
1714858345121578500,9.46257861328125,-0.013049479573965073,-0.17696692049503326,0.005858949851244688
1714858345131528000,9.47252783203125,-0.015180006623268127,-0.1844237744808197,0.002663159044459462
1714858345141477400,9.482477294921875,-0.005592633970081806,-0.13009531795978546,-0.017576850950717926
1714858345151426800,9.4924267578125,0.0050600022077560425,-0.051265813410282135,-0.03675159439444542
1714858345161376300,9.502376220703125,0.021038956940174103,-0.016112113371491432,-0.042077913880348206
1714858345171325700,9.51232568359375,0.04340949282050133,0.017976323142647743,-0.04314317926764488
1714858345181275100,9.522275146484375,0.05193160101771355,0.048868969082832336,-0.034621067345142365
1714858345191224600,9.532224609375,0.035952646285295486,0.028628960251808167,0.004793686326593161
1714858345201174000,9.542174072265626,0.007190529722720385,-0.02889527566730976,0.061252661049366
1714858345211123500,9.55212353515625,-0.02263685315847397,-0.05659212917089462,0.11238531768321991
1714858345221073000,9.562072998046874,-0.04287686198949814,-0.012916321866214275,0.1464737504720688
1714858345231022300,9.572022216796874,-0.03968106955289841,0.09893636405467987,0.15180006623268127
1714858345240971800,9.5819716796875,-0.0023968431632965803,0.2150501012802124,0.14327795803546906
1714858345250921200,9.591921142578125,0.05193160101771355,0.30666276812553406,0.1454084813594818
1714858345260870700,9.60187060546875,0.10412952303886414,0.36844804883003235,0.1645832359790802
1714858345270820000,9.611820068359375,0.13715268671512604,0.41105860471725464,0.19973693788051605
1714858345280769500,9.62176953125,0.13715268671512604,0.4281028211116791,0.23915168642997742
1714858345290718700,9.63171875,0.11797794699668884,0.4281028211116791,0.276435911655426
1714858345300668200,9.641668212890625,0.09880319982767105,0.4185154438018799,0.3020022511482239
1714858345310617600,9.65161767578125,0.10839057713747025,0.43449440598487854,0.2998717129230499
1714858345320567000,9.661567138671876,0.15206637978553772,0.5484775900840759,0.2551306486129761
1714858345330516500,9.6715166015625,0.24580958485603333,0.7892271876335144,0.1358211189508438
1714858345340466000,9.6814658203125,0.3842938542366028,0.90427565574646,-0.03142527863383293
1714858345350415400,9.691415283203124,0.48016759753227234,0.9458209276199341,-0.2167811542749405
1714858345360364800,9.70136474609375,0.49934232234954834,0.9777788519859314,-0.3904191255569458
1714858345370314200,9.711314208984374,0.46099284291267395,0.8893619775772095,-0.5129244327545166
1714858345380263700,9.721263671875,0.3874896466732025,0.6432861089706421,-0.5448823571205139
1714858345390213000,9.731213134765625,0.2937464416027069,0.3183806836605072,-0.47777074575424194
1714858345400162600,9.74116259765625,0.18402428925037384,0.05099949613213539,-0.34993910789489746
1714858345410112000,9.751112060546875,0.09986846894025803,-0.05659212917089462,-0.21891167759895325
1714858345420061400,9.7610615234375,0.06897582113742828,-0.0672447681427002,-0.12090742588043213
1714858345430011000,9.771010986328125,0.07856319099664688,0.01904158666729927,-0.0655137151479721
1714858345439960300,9.780960205078125,0.12117373943328857,0.20865851640701294,-0.07723161578178406
1714858345449909800,9.79090966796875,0.19148114323616028,0.35033857822418213,-0.11877689510583878
1714858345459859200,9.800859130859376,0.2287653684616089,0.4227765202522278,-0.15286533534526825
1714858345469808600,9.81080859375,0.20746009051799774,0.430233359336853,-0.15606112778186798
1714858345479758000,9.820758056640624,0.16911059617996216,0.3886880576610565,-0.1464737504720688
1714858345489707300,9.830707275390624,0.14674006402492523,0.3141196072101593,-0.1411474347114563
1714858345499656700,9.84065673828125,0.11691268533468246,0.2246374636888504,-0.1368863731622696
1714858345509606100,9.850606201171875,0.08069372177124023,0.0978710949420929,-0.13475584983825684
1714858345519555800,9.860555908203125,0.048735812306404114,-0.04167843982577324,-0.15286533534526825
1714858345529505300,9.87050537109375,0.03914843872189522,-0.08748477697372437,-0.1880190372467041
1714858345539454700,9.880454833984375,0.05938844755291939,-0.007590003311634064,-0.2306295782327652
1714858345549404200,9.890404052734375,0.0966726765036583,0.12982900440692902,-0.2732401192188263
1714858345559353600,9.900353515625,0.13608743250370026,0.31198909878730774,-0.335025429725647
1714858345569303000,9.910302978515626,0.20532956719398499,0.36738279461860657,-0.3818970024585724
1714858345579252500,9.92025244140625,0.25433170795440674,0.32583752274513245,-0.3850927948951721
1714858345589202200,9.9302021484375,0.280963271856308,0.24274694919586182,-0.3584612011909485
1714858345599151600,9.940151611328124,0.32890015840530396,0.12769848108291626,-0.34567806124687195
1714858345609101000,9.95010107421875,0.3683148920536041,0.07976161688566208,-0.3520696461200714
1714858345619050500,9.960050537109375,0.3502054214477539,0.13302479684352875,-0.3573959469795227
1714858345629000000,9.97,0.2905506491661072,0.18522271513938904,-0.3563306927680969
1714858345638949400,9.979949462890625,0.22024326026439667,0.16924376785755157,-0.35526543855667114
1714858345648899000,9.989899169921875,0.1669800728559494,0.13302479684352875,-0.36485278606414795
1714858345658848500,9.9998486328125,0.14034847915172577,0.12024163454771042,-0.38296228647232056
1714858345668798000,10.0097978515625,0.12650005519390106,0.1255679577589035,-0.3989412188529968
1714858345678747400,10.019747314453125,0.11478215456008911,0.12024163454771042,-0.3989412188529968
1714858345688696800,10.02969677734375,0.08921582996845245,0.12663321197032928,-0.39361491799354553
1714858345698646300,10.039646240234376,0.040213704109191895,0.11811110377311707,-0.3818970024585724
1714858345708595700,10.049595703125,-0.001331579522229731,0.04673844203352928,-0.3627222776412964
1714858345718545400,10.05954541015625,-0.0141147430986166,-0.03848264738917351,-0.3382211923599243
1714858345728494800,10.069494873046875,-0.006657897960394621,-0.05233107507228851,-0.29880645871162415
1714858345738444300,10.0794443359375,0.02210422046482563,0.024367906153202057,-0.2348906397819519
1714858345748393700,10.089393798828125,0.060453712940216064,0.1213068962097168,-0.14753901958465576
1714858345758343200,10.09934326171875,0.08495477586984634,0.15752586722373962,-0.03568633273243904
1714858345768292600,10.109292724609375,0.0870852991938591,0.12343742698431015,0.07829687744379044
1714858345778242300,10.1192421875,0.07643266767263412,0.08721846342086792,0.1699095517396927
1714858345788191700,10.129191650390625,0.07643266767263412,0.09680583328008652,0.211454838514328
1714858345798141200,10.13914111328125,0.09241162240505219,0.11385004967451096,0.20506325364112854
1714858345808090600,10.149090576171876,0.10199899226427078,0.10532794147729874,0.16245271265506744
1714858345818040000,10.1590400390625,0.09454214572906494,0.0786963477730751,0.09108003973960876
1714858345827989500,10.168989501953124,0.08602003753185272,0.05952160432934761,0.002663159044459462
1714858345837939000,10.17893896484375,0.06684529036283493,0.0456731803715229,-0.09214530140161514
1714858345847888600,10.188888671875,0.048735812306404114,0.004127896390855312,-0.1464737504720688
1714858345857838000,10.198838134765625,0.019973693415522575,-0.06937529146671295,-0.14860427379608154
