time,seconds_elapsed,z,y,x
1714858335808870000,0.149869873046875,-0.046871598809957504,0.0021305272821336985,0.05539371073246002
1714858335818819300,0.1598193359375,-0.02450106292963028,-0.08628635853528976,0.03621896356344223
1714858335828768800,0.169768798828125,-0.0010652636410668492,-0.1363537460565567,0.05219791829586029
1714858335838718200,0.17971826171875,0.009587372653186321,-0.1310274302959442,0.10013478249311447
1714858335848667600,0.189667724609375,-0.0021305272821336985,-0.07669898122549057,0.1555284857749939
1714858335858617000,0.1996171875,-0.025566328316926956,0.004261054564267397,0.18002955615520477
1714858335868566300,0.209566162109375,-0.0564589723944664,0.07776424288749695,0.1651158630847931
1714858335878515700,0.219515625,-0.09267793595790863,0.10972215235233307,0.12144005298614502
1714858335888465200,0.229465087890625,-0.12144005298614502,0.09480846673250198,0.06924213469028473
1714858335898414600,0.23941455078125,-0.1363537460565567,0.050067391246557236,0.004261054564267397
1714858335908364000,0.249364013671875,-0.13315795361995697,-0.008522109128534794,-0.06498108059167862
1714858335918313500,0.2593134765625,-0.10865689069032669,-0.0798947736620903,-0.1310274302959442
1714858335928263000,0.269262939453125,-0.08841688185930252,-0.1597895473241806,-0.18429060280323029
1714858335938212400,0.27921240234375,-0.07882951200008392,-0.22370536625385284,-0.21518325805664062
1714858335948161800,0.289161865234375,-0.06817687302827835,-0.25566327571868896,-0.23222747445106506
1714858335958111200,0.299111328125,-0.04900212585926056,-0.2812296152114868,-0.2205095738172531
1714858335968060700,0.309060791015625,-0.03621896356344223,-0.3067959249019623,-0.20346535742282867
1714858335978010000,0.319010009765625,-0.05752423778176308,-0.3344927728176117,-0.18642114102840424
1714858335987959600,0.32895947265625,-0.09374319761991501,-0.3195790946483612,-0.19600850343704224
1714858335997909000,0.338908935546875,-0.0990695208311081,-0.24820642173290253,-0.2396843135356903
1714858336007858400,0.3488583984375,-0.06817687302827835,-0.16405059397220612,-0.28975170850753784
1714858336017808000,0.358807861328125,-0.022370535880327225,-0.13315795361995697,-0.30892646312713623
1714858336027757300,0.36875732421875,0.04367581009864807,-0.10759162902832031,-0.3163833022117615
1714858336037706800,0.378706787109375,0.122505322098732,-0.07350318878889084,-0.3249054253101349
1714858336047656200,0.38865625,0.188551664352417,-0.026631591841578484,-0.32170963287353516
1714858336057605600,0.398605712890625,0.2258358895778656,0.0703074038028717,-0.3153180480003357
1714858336067554800,0.408554931640625,0.22477063536643982,0.21305273473262787,-0.3163833022117615
1714858336077504300,0.418504150390625,0.19387798011302948,0.3185138404369354,-0.309991717338562
1714858336087454000,0.428453857421875,0.13209268450737,0.27909907698631287,-0.30360013246536255
1714858336097403400,0.4384033203125,0.10013478249311447,0.1693769246339798,-0.3440801501274109
1714858336107352800,0.448352783203125,0.09587372839450836,0.058589499443769455,-0.422909677028656
1714858336117302300,0.45830224609375,0.11611373722553253,-0.0564589723944664,-0.49108654260635376
1714858336127251700,0.468251708984375,0.17470324039459229,-0.2024000883102417,-0.5091960430145264
1714858336137201200,0.478201171875,0.2545980215072632,-0.2929475009441376,-0.46338969469070435
1714858336147150600,0.488150634765625,0.3163833022117615,-0.2300969511270523,-0.3419496417045593
1714858336157100300,0.498100341796875,0.36432015895843506,-0.04048001766204834,-0.14487585425376892
1714858336167049700,0.5080498046875,0.3952127993106842,0.19494324922561646,0.09800425171852112
1714858336176999200,0.517999267578125,0.4005391299724579,0.4506065249443054,0.35047173500061035
1714858336186948600,0.527948486328125,0.4431496858596802,0.7744466662406921,0.5347623229026794
1714858336196898000,0.53789794921875,0.5177181363105774,1.0695246458053589,0.5965476632118225
1714858336206847500,0.547847412109375,0.5592634081840515,1.198421597480774,0.5432844758033752
1714858336216797200,0.557797119140625,0.5187833905220032,1.1643331050872803,0.42184439301490784
1714858336226746600,0.56774658203125,0.39308229088783264,0.8905603885650635,0.35899385809898376
1714858336236696000,0.577696044921875,0.23755379021167755,0.48682549595832825,0.3536675274372101
1714858336246645500,0.5876455078125,0.09054741263389587,0.18961693346500397,0.3334275186061859
1714858336256595000,0.597594970703125,-0.05326318368315697,0.07669898122549057,0.27909907698631287
1714858336266544400,0.60754443359375,-0.20133483409881592,0.16085481643676758,0.22903168201446533
1714858336276493800,0.617493896484375,-0.3344927728176117,0.3536675274372101,0.18642114102840424
1714858336286443500,0.627443603515625,-0.377103328704834,0.552871823310852,0.10972215235233307
1714858336296393000,0.63739306640625,-0.3163833022117615,0.7456845641136169,-0.018109481781721115
1714858336306342400,0.64734228515625,-0.2162485122680664,0.817057192325592,-0.12996216118335724
1714858336316291800,0.657291748046875,-0.12996216118335724,0.8021435141563416,-0.1970737725496292
1714858336326241300,0.6672412109375,-0.10013478249311447,0.7350319027900696,-0.21731378138065338
1714858336336190700,0.677190673828125,-0.16831165552139282,0.6924213767051697,-0.2311622053384781
1714858336346140400,0.687140380859375,-0.3376885652542114,0.8831035494804382,-0.34088435769081116
1714858336356089900,0.69708984375,-0.442084401845932,1.319861650466919,-0.5933518409729004
1714858336366039300,0.707039306640625,-0.3898864984512329,1.9728682041168213,-1.017326831817627
1714858336375988700,0.71698876953125,-0.28016433119773865,2.2636852264404297,-1.2868385314941406
1714858336385938200,0.726938232421875,-0.11611373722553253,2.4586284160614014,-1.433844804763794
1714858336395887600,0.7368876953125,0.0703074038028717,2.668485403060913,-1.59256911277771
1714858336405837000,0.746837158203125,0.1832253485918045,3.0178918838500977,-1.8546240329742432
1714858336415786800,0.756786865234375,0.17789903283119202,3.3992562294006348,-2.1805946826934814
1714858336425736200,0.766736083984375,0.12357058376073837,3.4397363662719727,-2.491651773452759
1714858336435685600,0.776685546875,0.03515370190143585,3.1265487670898438,-2.734531879425049
1714858336445635000,0.786635009765625,-0.07669898122549057,2.445845365524292,-2.911365509033203
1714858336455584500,0.79658447265625,-0.27483803033828735,1.5883080959320068,-2.9848687648773193
1714858336465534000,0.806533935546875,-0.5400886535644531,0.6913561224937439,-2.8304054737091064
1714858336475483600,0.816483642578125,-0.7510108947753906,-0.5049349665641785,-2.326535701751709
1714858336485433000,0.82643310546875,-0.7456845641136169,-2.251967430114746,-1.4998911619186401
1714858336495382500,0.836382568359375,-0.641288697719574,-3.8285574913024902,-0.3632549047470093
1714858336505332000,0.84633203125,-0.6359623670578003,-4.494347095489502,0.8628635406494141
1714858336515281400,0.856281494140625,-0.7755119204521179,-4.5412187576293945,1.83544921875
1714858336525230800,0.86623095703125,-1.0375667810440063,-4.505000114440918,2.4192137718200684
1714858336535180300,0.87618017578125,-1.290034294128418,-4.290882110595703,2.5864601135253906
1714858336545130000,0.8861298828125,-1.3699290752410889,-3.8860816955566406,2.444780111312866
1714858336555079400,0.896079345703125,-1.3305143117904663,-3.5984606742858887,2.1507673263549805
1714858336565028900,0.90602880859375,-1.2889690399169922,-4.495412349700928,1.8492976427078247
1714858336574978300,0.915978271484375,-1.1153310537338257,-4.827775001525879,1.319861650466919
1714858336584927700,0.925927734375,0.08202529698610306,-0.6562023758888245,-0.7797729969024658
1714858336594877200,0.935877197265625,1.374190092086792,0.0021305272821336985,-1.8524935245513916
1714858336604827000,0.945826904296875,1.4104090929031372,-2.0857861042022705,-1.265533208847046
1714858336614776300,0.9557763671875,0.6476802825927734,-2.5086958408355713,-0.754206657409668
1714858336624725800,0.965725830078125,-0.13741901516914368,-2.554502248764038,-0.544349730014801
1714858336634675200,0.97567529296875,-0.6391581892967224,-2.425605297088623,-0.4005391299724579
1714858336644624600,0.985624755859375,-0.8309056162834167,-1.9483672380447388,-0.2396843135356903
1714858336654574000,0.995573974609375,-0.845819354057312,-1.3049479722976685,0.10546109825372696
1714858336664523500,1.0055234375,-0.7829687595367432,-0.6540718674659729,0.6636592745780945
1714858336674473200,1.01547314453125,-0.5922865867614746,0.045806337147951126,1.118526816368103
1714858336684422700,1.025422607421875,-0.23755379021167755,0.8532761931419373,1.2261184453964233
1714858336694372000,1.0353720703125,0.14700637757778168,1.3763206005096436,1.1472889184951782
1714858336704321500,1.045321533203125,0.498543381690979,1.4466279745101929,1.0162614583969116
1714858336714271000,1.05527099609375,0.8255793452262878,1.272990107536316,0.8820382952690125
1714858336724220400,1.065220458984375,1.0301098823547363,0.9566067457199097,0.7531414031982422
1714858336734170000,1.075170166015625,1.155811071395874,0.5667202472686768,0.5635244846343994
1714858336744119600,1.08511962890625,1.2250531911849976,0.11717899888753891,0.37816858291625977
1714858336754069000,1.095069091796875,1.1600720882415771,-0.16618113219738007,0.2972085475921631
1714858336764018400,1.105018310546875,1.0226531028747559,0.0031957910396158695,0.30360013246536255
1714858336773968000,1.1149677734375,0.8703203797340393,0.5560676455497742,0.4005391299724579
1714858336783917300,1.124917236328125,0.7520761489868164,1.0716552734375,0.5880255103111267
1714858336793866800,1.13486669921875,0.7925561666488647,1.435975432395935,0.7861645817756653
1714858336803816400,1.14481640625,1.0290446281433105,1.6053522825241089,1.0311752557754517
1714858336813766000,1.154765869140625,1.3827122449874878,1.4966953992843628,1.3582111597061157
1714858336823715300,1.16471533203125,1.65009343624115,1.570198655128479,1.678855538368225
1714858336833664800,1.174664794921875,1.6777902841567993,1.9185397624969482,1.8279924392700195
1714858336843614200,1.1846142578125,1.379516363143921,2.316948413848877,1.7608808279037476
1714858336853563600,1.194563720703125,0.9246488213539124,2.643984317779541,1.629853367805481
1714858336863513300,1.204513427734375,0.4665854871273041,2.6216137409210205,1.5403711795806885
1714858336873462800,1.214462890625,0.06817687302827835,2.1816599369049072,1.545697569847107
1714858336883412200,1.224412109375,-0.25566327571868896,1.5915038585662842,1.604287028312683
1714858336893361700,1.234361572265625,-0.4410191476345062,1.0737857818603516,1.575524926185608
1714858336903311000,1.24431103515625,-0.43036651611328125,0.7648593187332153,1.2016173601150513
1714858336913260500,1.254260498046875,-0.2311622053384781,0.5155876278877258,0.6093307733535767
1714858336923210000,1.2642099609375,0.12037479132413864,0.038349490612745285,0.12037479132413864
1714858336933159700,1.27415966796875,0.38882121443748474,-0.3067959249019623,-0.3249054253101349
1714858336943109000,1.284109130859375,0.4431496858596802,-0.33662331104278564,-0.784034013748169
1714858336953058600,1.29405859375,0.4048001766204834,-0.366450697183609,-1.1270489692687988
1714858336963008000,1.304008056640625,0.38775596022605896,-0.5816339254379272,-1.3379710912704468
1714858336972957400,1.31395751953125,0.40693071484565735,-0.9843035936355591,-1.4381059408187866
1714858336982907000,1.323906982421875,0.40799596905708313,-1.3731248378753662,-1.3656679391860962
1714858336992856600,1.333856689453125,0.37816858291625977,-1.5733944177627563,-1.1004173755645752
1714858337002806000,1.343805908203125,0.34940648078918457,-1.7480976581573486,-0.7616634964942932
1714858337012755500,1.35375537109375,0.25566327571868896,-1.825861930847168,-0.46871599555015564
1714858337022705000,1.363704833984375,0.08735162019729614,-1.689508080482483,-0.27590328454971313
1714858337032654300,1.373654296875,-0.061785291880369186,-1.5041522979736328,-0.20985694229602814
1714858337042603800,1.383603759765625,-0.12463584542274475,-1.368863821029663,-0.27590328454971313
1714858337052553200,1.39355322265625,-0.12144005298614502,-1.2793816328048706,-0.43143177032470703
1714858337062503000,1.4035029296875,-0.12889690697193146,-1.3379710912704468,-0.6061350107192993
1714858337072452400,1.413452392578125,-0.18109482526779175,-1.324122667312622,-0.7467498183250427
1714858337082401800,1.42340185546875,-0.2311622053384781,-1.1100046634674072,-0.7946866750717163
1714858337092351200,1.433351318359375,-0.32597067952156067,-1.004543662071228,-0.7275750637054443
1714858337102300700,1.44330078125,-0.5049349665641785,-1.068459391593933,-0.6231792569160461
1714858337112250000,1.45325,-0.7307708859443665,-1.068459391593933,-0.611461341381073
1714858337122199600,1.463199462890625,-0.9033435583114624,-0.9736509919166565,-0.6679202914237976
1714858337132149200,1.473149169921875,-0.9033435583114624,-0.7179877161979675,-0.6807034611701965
1714858337142098700,1.4830986328125,-0.7318361401557922,-0.21092219650745392,-0.5507413148880005
1714858337152048000,1.493048095703125,-0.4186486005783081,0.46765074133872986,-0.25246748328208923
1714858337161997600,1.50299755859375,-0.05326318368315697,1.2090742588043213,0.17150744795799255
1714858337171947000,1.512947021484375,0.2716422379016876,1.7853819131851196,0.6796382069587708
1714858337181896400,1.522896484375,0.5006738901138306,1.9238661527633667,1.0705899000167847
1714858337191846100,1.53284619140625,0.4836297035217285,1.4796512126922607,1.0322405099868774
1714858337201795600,1.542795654296875,0.2780338227748871,0.8724509477615356,0.7201182246208191
1714858337211745000,1.5527451171875,0.03941475600004196,0.6061350107192993,0.37390753626823425
1714858337221694500,1.562694580078125,-0.13528847694396973,0.53582763671875,0.07350318878889084
1714858337231644000,1.572643798828125,-0.19920429587364197,0.6093307733535767,-0.16085481643676758
1714858337241593300,1.58259326171875,-0.24074958264827728,0.6817687153816223,-0.32703593373298645
1714858337251542800,1.592542724609375,-0.22796641290187836,0.6775076985359192,-0.3920170068740845
1714858337261492500,1.602492431640625,-0.13209268450737,0.8266445994377136,-0.3866907060146332
1714858337271442000,1.61244189453125,-0.010652636177837849,1.1622025966644287,-0.29827383160591125
1714858337281391400,1.622391357421875,0.022370535880327225,1.4072132110595703,-0.10226531326770782
1714858337291340800,1.6323408203125,0.0010652636410668492,1.6863123178482056,0.0798947736620903
1714858337301290200,1.642290283203125,-0.005326318088918924,1.7033565044403076,0.18642114102840424
1714858337311239700,1.65223974609375,0.013848427683115005,1.4146701097488403,0.23648852109909058
1714858337321189400,1.662189453125,0.025566328316926956,1.1472889184951782,0.24607589840888977
1714858337331138800,1.672138916015625,0.019174745306372643,1.0524804592132568,0.21411798894405365
1714858337341088300,1.682088134765625,-0.03515370190143585,1.105743646621704,0.1129179447889328
1714858337351037700,1.69203759765625,-0.07776424288749695,1.143027901649475,-0.06498108059167862
1714858337360987100,1.701987060546875,-0.10865689069032669,1.1451584100723267,-0.30253487825393677
1714858337370936600,1.7119365234375,-0.12357058376073837,1.2112047672271729,-0.5390233993530273
1714858337380886000,1.721885986328125,-0.14913691580295563,1.235705852508545,-0.6988129615783691
1714858337390835700,1.731835693359375,-0.22264009714126587,1.1664637327194214,-0.8053393363952637
1714858337400785200,1.74178515625,-0.320644348859787,1.0237183570861816,-0.8564719557762146
1714858337410734600,1.751734619140625,-0.37923386693000793,0.8660593628883362,-0.7691203355789185
1714858337420684000,1.76168408203125,-0.38456016778945923,0.5581981539726257,-0.5262402296066284
1714858337430633500,1.771633544921875,-0.3611243665218353,0.17470324039459229,-0.245010644197464
1714858337440583000,1.7815830078125,-0.36432015895843506,-0.10439583659172058,0.029827382415533066
1714858337450532600,1.79153271484375,-0.40266966819763184,-0.17257271707057953,0.30253487825393677
1714858337460482000,1.80148193359375,-0.44847598671913147,-0.05965476483106613,0.5422192215919495
1714858337470431500,1.811431396484375,-0.49108654260635376,0.10546109825372696,0.7105308771133423
1714858337480381000,1.821380859375,-0.5049349665641785,0.2077264040708542,0.7712509036064148
1714858337490330400,1.831330322265625,-0.46765074133872986,0.21518325805664062,0.7297055721282959
1714858337500279800,1.84127978515625,-0.3941475450992584,0.14913691580295563,0.6274402737617493
1714858337510229200,1.851229248046875,-0.3185138404369354,0.06817687302827835,0.5251749753952026
1714858337520179000,1.861178955078125,-0.24288010597229004,-0.034088436514139175,0.5017392039299011
1714858337530128400,1.87112841796875,-0.16192007064819336,-0.2077264040708542,0.5230444669723511
1714858337540077800,1.881077880859375,-0.11504847556352615,-0.38775596022605896,0.50706547498703
1714858337550027300,1.89102734375,-0.11930952966213226,-0.490021288394928,0.45486757159233093
1714858337559976700,1.900976806640625,-0.14700637757778168,-0.5155876278877258,0.38882121443748474
1714858337569926100,1.910926025390625,-0.17257271707057953,-0.5720465779304504,0.3163833022117615
1714858337579875800,1.920875732421875,-0.1928127259016037,-0.6721813678741455,0.22796641290187836
1714858337589825300,1.9308251953125,-0.19174745678901672,-0.7723161578178406,0.14913691580295563
1714858337599774700,1.940774658203125,-0.16085481643676758,-0.8404930233955383,0.08522108942270279
1714858337609724200,1.95072412109375,-0.11398320645093918,-0.8862993717193604,0.022370535880327225
1714858337619673600,1.960673583984375,-0.06285055726766586,-0.875646710395813,-0.03941475600004196
1714858337629623000,1.970623046875,-0.0010652636410668492,-0.8010782599449158,-0.06817687302827835
1714858337639572500,1.980572509765625,0.07137266546487808,-0.7094655632972717,-0.05219791829586029
1714858337649522200,1.990522216796875,0.12357058376073837,-0.6593981981277466,-0.029827382415533066
1714858337659471600,2.0004716796875,0.12783163785934448,-0.6434192657470703,-0.04900212585926056
1714858337669421000,2.010421142578125,0.09267793595790863,-0.6157223582267761,-0.08096003532409668
1714858337679370500,2.02037060546875,0.02876211889088154,-0.5816339254379272,-0.08415582776069641
1714858337689320000,2.03031982421875,-0.03621896356344223,-0.5773729085922241,-0.0703074038028717
1714858337699269400,2.040269287109375,-0.08096003532409668,-0.6359623670578003,-0.019174745306372643
1714858337709219000,2.050218994140625,-0.13422322273254395,-0.784034013748169,0.05219791829586029
1714858337719168500,2.06016845703125,-0.21944430470466614,-0.9832383394241333,0.1033305749297142
1714858337729118000,2.070117919921875,-0.2961432933807373,-1.2623374462127686,0.1970737725496292
1714858337739067400,2.0800673828125,-0.40799596905708313,-1.562741756439209,0.33129698038101196
1714858337749016800,2.090016845703125,-0.5858950018882751,-1.7427712678909302,0.47723811864852905
1714858337758966300,2.09996630859375,-0.8032087683677673,-1.714009165763855,0.6498108506202698
1714858337768915700,2.109915771484375,-1.004543662071228,-1.5243922472000122,0.8724509477615356
1714858337778865400,2.119865478515625,-1.1366362571716309,-1.2847079038619995,1.0631331205368042
1714858337788814800,2.12981494140625,-1.1323752403259277,-1.1377015113830566,1.2090742588043213
1714858337798764300,2.139764404296875,-1.034371018409729,-1.047154188156128,1.2996217012405396
1714858337808713700,2.149713623046875,-0.9225183129310608,-0.951280415058136,1.3358405828475952
1714858337818663200,2.1596630859375,-0.8362319469451904,-0.8735162019729614,1.2996217012405396
1714858337828612600,2.169612548828125,-0.8064045906066895,-0.7211834788322449,1.1760510206222534
1714858337838562300,2.179562255859375,-0.8064045906066895,-0.5251749753952026,1.0759162902832031
1714858337848511700,2.18951171875,-0.808535099029541,-0.36858120560646057,1.034371018409729
1714858337858461200,2.199461181640625,-0.8127961754798889,-0.3344927728176117,1.0120004415512085
1714858337868410600,2.20941064453125,-0.7488803267478943,-0.3195790946483612,1.0407625436782837
1714858337878360000,2.219360107421875,-0.6040045022964478,-0.3430148959159851,1.1302447319030762
1714858337888309500,2.2293095703125,-0.4474107325077057,-0.4197138845920563,1.1600720882415771
1714858337898259000,2.239259033203125,-0.32277488708496094,-0.5422192215919495,1.0546109676361084
1714858337908208600,2.249208740234375,-0.32810118794441223,-0.7510108947753906,0.829840362071991
1714858337918158000,2.259157958984375,-0.42077913880348206,-0.9139962196350098,0.5464802384376526
1714858337928107500,2.269107421875,-0.48149916529655457,-0.9811078310012817,0.3536675274372101
1714858337938057000,2.279056884765625,-0.48149916529655457,-1.0279793739318848,0.32810118794441223
1714858337948006400,2.28900634765625,-0.452737033367157,-1.0194573402404785,0.4154528081417084
1714858337957955800,2.298955810546875,-0.4708465337753296,-0.8724509477615356,0.5464802384376526
1714858337967905300,2.3089052734375,-0.4942823350429535,-0.5976129174232483,0.6945518851280212
1714858337977855000,2.31885498046875,-0.4793686270713806,-0.1736379712820053,0.8064045906066895
1714858337987804400,2.328804443359375,-0.4601939022541046,0.2972085475921631,0.8767119646072388
1714858337997753900,2.33875390625,-0.44421494007110596,0.6764423847198486,0.8948214650154114
1714858338007703300,2.348703369140625,-0.40799596905708313,0.8596677780151367,0.817057192325592
1714858338017652700,2.35865283203125,-0.3898864984512329,0.7392929792404175,0.6210486888885498
1714858338027602200,2.368602294921875,-0.37923386693000793,0.422909677028656,0.3067959249019623
1714858338037551900,2.3785517578125,-0.32810118794441223,0.08841688185930252,-0.041545283049345016
1714858338047501300,2.388501220703125,-0.2908169627189636,-0.26631590723991394,-0.3621896505355835
1714858338057450800,2.39845068359375,-0.30466538667678833,-0.5752423405647278,-0.6668550372123718
1714858338067400200,2.408400146484375,-0.3536675274372101,-0.8245140314102173,-0.9448888301849365
1714858338077349600,2.418349609375,-0.40266966819763184,-0.9853688478469849,-1.1632678508758545
1714858338087299000,2.428299072265625,-0.4378233551979065,-1.0183920860290527,-1.2740553617477417
1714858338097248500,2.43824853515625,-0.44847598671913147,-0.9235835671424866,-1.2751206159591675
1714858338107198200,2.4481982421875,-0.4048001766204834,-0.7158571481704712,-1.1973563432693481
1714858338117147600,2.458147705078125,-0.29827383160591125,-0.48789075016975403,-1.0492846965789795
1714858338127097000,2.46809716796875,-0.16724638640880585,-0.3110569715499878,-0.845819354057312
1714858338137046500,2.478046630859375,-0.07137266546487808,-0.20559588074684143,-0.6402234435081482
1714858338146996000,2.487995849609375,-0.03621896356344223,-0.15446323156356812,-0.5187833905220032
1714858338156945400,2.4979453125,-0.06924213469028473,-0.1651158630847931,-0.5432844758033752
1714858338166895000,2.50789501953125,-0.1981390416622162,-0.2673811614513397,-0.7009434700012207
1714858338176844500,2.517844482421875,-0.3675159513950348,-0.35899385809898376,-0.9086698889732361
1714858338186794000,2.5277939453125,-0.48256441950798035,-0.5518065690994263,-1.101482629776001
1714858338196743400,2.537743408203125,-0.5038697123527527,-0.9033435583114624,-1.3038827180862427
1714858338206692900,2.54769287109375,-0.4751075804233551,-1.235705852508545,-1.5094785690307617
1714858338216642300,2.557642333984375,-0.43569281697273254,-1.4061479568481445,-1.6618112325668335
1714858338226591700,2.567591796875,-0.377103328704834,-1.4072132110595703,-1.7001607418060303
1714858338236541400,2.57754150390625,-0.3004043400287628,-1.312404751777649,-1.604287028312683
1714858338246491000,2.587490966796875,-0.24288010597229004,-1.210139513015747,-1.4423669576644897
1714858338256440300,2.5974404296875,-0.19494324922561646,-1.0801773071289062,-1.2868385314941406
1714858338266389800,2.6073896484375,-0.17150744795799255,-0.8575372099876404,-1.151550054550171
1714858338276339200,2.617339111328125,-0.2205095738172531,-0.552871823310852,-1.0109351873397827
1714858338286288600,2.62728857421875,-0.3163833022117615,-0.24394537508487701,-0.8394277691841125
1714858338296238300,2.63723828125,-0.37497279047966003,-0.023435799404978752,-0.6732466220855713
1714858338306187800,2.647187744140625,-0.36432015895843506,0.021305272355675697,-0.6125265955924988
1714858338316137200,2.65713720703125,-0.36005911231040955,-0.2716422379016876,-0.8330361843109131
1714858338326086700,2.667086669921875,-0.2769685387611389,-0.34621068835258484,-1.0663288831710815
1714858338336036000,2.6770361328125,-0.0990695208311081,-0.2066611498594284,-1.1121352910995483
1714858338345985500,2.686985595703125,0.018109481781721115,-0.12996216118335724,-1.0663288831710815
1714858338355935000,2.69693505859375,0.03728422895073891,-0.10120004415512085,-0.9938910007476807
1714858338365884700,2.706884765625,-0.054328445345163345,-0.0330231711268425,-0.9289098978042603
1714858338375834000,2.716834228515625,-0.15765902400016785,0.13422322273254395,-0.7797729969024658
1714858338385783600,2.726783447265625,-0.25246748328208923,0.2769685387611389,-0.4601939022541046
1714858338395733000,2.73673291015625,-0.3952127993106842,0.3760380744934082,-0.05326318368315697
1714858338405682400,2.746682373046875,-0.5411539077758789,0.48256441950798035,0.2780338227748871
1714858338415632000,2.7566318359375,-0.6625939607620239,0.602939248085022,0.5049349665641785
1714858338425581600,2.76658154296875,-0.732901394367218,0.7605982422828674,0.695617139339447
1714858338435531000,2.776531005859375,-0.7062698006629944,0.9874994158744812,0.8905603885650635
1714858338445480400,2.78648046875,-0.574177086353302,1.2080090045928955,1.0492846965789795
1714858338455430000,2.796429931640625,-0.35153698921203613,1.366733193397522,1.1291794776916504
1714858338465379300,2.80637939453125,-0.15126743912696838,1.458345890045166,1.1845731735229492
1714858338475328800,2.816328857421875,-0.10439583659172058,1.4551501274108887,1.1824426651000977
1714858338485278200,2.8262783203125,-0.13954953849315643,1.2665984630584717,1.0365015268325806
1714858338495228000,2.836227783203125,-0.24288010597229004,0.8149266839027405,0.7829687595367432
1714858338505177300,2.84617724609375,-0.3568633198738098,0.3185138404369354,0.5123918056488037
1714858338515126800,2.856126708984375,-0.40160438418388367,-0.12463584542274475,0.31318750977516174
1714858338525076200,2.866076171875,-0.3994738757610321,-0.3611243665218353,0.27590328454971313
1714858338535025700,2.876025634765625,-0.4239749312400818,-0.31318750977516174,0.37816858291625977
1714858338544975000,2.88597509765625,-0.48682549595832825,-0.07776424288749695,0.5049349665641785
1714858338554924800,2.8959248046875,-0.5539370775222778,0.2215748429298401,0.6093307733535767
1714858338564874200,2.905874267578125,-0.602939248085022,0.4559328258037567,0.6764423847198486
1714858338574823700,2.91582373046875,-0.5890907645225525,0.6040045022964478,0.7190529704093933
1714858338584773400,2.9257734375,-0.5241097211837769,0.7265098094940186,0.7691203355789185
1714858338594722800,2.935722900390625,-0.4506065249443054,0.8372972011566162,0.7733814120292664
1714858338604672500,2.945672607421875,-0.36858120560646057,0.8894951343536377,0.7382277250289917
1714858338614622000,2.9556220703125,-0.3110569715499878,0.7968171834945679,0.657267689704895
1714858338624571400,2.9655712890625,-0.2822948694229126,0.6253097653388977,0.5134570598602295
1714858338634521000,2.97552099609375,-0.2684464454650879,0.41651809215545654,0.3291664719581604
1714858338644470500,2.985470458984375,-0.25246748328208923,0.2162485122680664,0.11398320645093918
1714858338654420000,2.995419921875,-0.21518325805664062,-0.023435799404978752,-0.11717899888753891
1714858338664369700,3.00536962890625,-0.15339796245098114,-0.10546109825372696,-0.30892646312713623
1714858338674319000,3.015319091796875,-0.05752423778176308,-0.023435799404978752,-0.40266966819763184
1714858338684268500,3.0252685546875,0.026631591841578484,0.0031957910396158695,-0.43569281697273254
1714858338694218200,3.03521826171875,0.06498108059167862,0.08735162019729614,-0.4133222997188568
1714858338704167700,3.045167724609375,0.09267793595790863,0.15765902400016785,-0.366450697183609
1714858338714117000,3.0551171875,0.08628635853528976,0.16618113219738007,-0.3249054253101349
1714858338724066800,3.06506689453125,0.03941475600004196,0.07882951200008392,-0.28868645429611206
1714858338734016300,3.075016357421875,-0.026631591841578484,-0.04367581009864807,-0.23648852109909058
1714858338743965700,3.084965576171875,-0.0990695208311081,-0.16085481643676758,-0.15659375488758087
1714858338753915400,3.094915283203125,-0.1928127259016037,-0.2077264040708542,-0.061785291880369186
1714858338763864800,3.10486474609375,-0.31212225556373596,-0.11824426054954529,0.029827382415533066
1714858338773814500,3.114814453125,-0.4090612530708313,0.03515370190143585,0.09161267429590225
1714858338783764000,3.124763916015625,-0.41225701570510864,0.06391581892967224,0.1033305749297142
1714858338793713400,3.13471337890625,-0.31212225556373596,-0.009587372653186321,0.061785291880369186
1714858338803663000,3.1446630859375,-0.1502021700143814,-0.07243792712688446,-0.011717899702489376
1714858338813612500,3.154612548828125,0.0031957910396158695,-0.08415582776069641,-0.08628635853528976
1714858338823562000,3.16456201171875,0.0990695208311081,-0.042610544711351395,-0.14807164669036865
1714858338833511700,3.17451171875,0.13528847694396973,0.014913691207766533,-0.18109482526779175
1714858338843461000,3.184461181640625,0.12144005298614502,0.06924213469028473,-0.19920429587364197
1714858338853410600,3.19441064453125,0.06817687302827835,0.14381058514118195,-0.22796641290187836
1714858338863360300,3.2043603515625,0.02450106292963028,0.26418536901474,-0.2599243223667145
1714858338873309700,3.214309814453125,0.04048001766204834,0.3579285740852356,-0.2577938139438629
1714858338883259100,3.224259033203125,0.11078742146492004,0.44847598671913147,-0.20879167318344116
1714858338893208600,3.23420849609375,0.2205095738172531,0.46338969469070435,-0.0894821435213089
1714858338903158000,3.244157958984375,0.32277488708496094,0.4239749312400818,0.05219791829586029
1714858338913107500,3.254107421875,0.35047173500061035,0.4037349224090576,0.11504847556352615
1714858338923057000,3.264056884765625,0.33662331104278564,0.3440801501274109,0.066046342253685
1714858338933006600,3.274006591796875,0.34621068835258484,0.17150744795799255,-0.030892645940184593
1714858338942956000,3.2839560546875,0.36858120560646057,-0.1033305749297142,-0.12996216118335724
1714858338952905500,3.293905517578125,0.37390753626823425,-0.37816858291625977,-0.24394537508487701
1714858338962855000,3.30385498046875,0.35047173500061035,-0.574177086353302,-0.38456016778945923
1714858338972804400,3.313804443359375,0.30466538667678833,-0.641288697719574,-0.5230444669723511
1714858338982753800,3.32375390625,0.25246748328208923,-0.5933518409729004,-0.5986781716346741
1714858338992703500,3.333703369140625,0.19068218767642975,-0.5475454926490784,-0.5816339254379272
1714858339002653000,3.34365283203125,0.1310274302959442,-0.4889560043811798,-0.47191178798675537
1714858339012602400,3.353602294921875,0.0798947736620903,-0.2588590681552887,-0.33129698038101196
1714858339022551800,3.3635517578125,0.08522108942270279,0.054328445345163345,-0.16192007064819336
1714858339032501200,3.373501220703125,0.1651158630847931,0.12144005298614502,0.050067391246557236
1714858339042450700,3.38345068359375,0.2492716908454895,0.006391582079231739,0.25566327571868896
1714858339052400000,3.393400146484375,0.27057695388793945,-0.03195790946483612,0.35899385809898376
1714858339062349800,3.403349853515625,0.23861905932426453,-0.046871598809957504,0.36858120560646057
1714858339072299300,3.41329931640625,0.18429060280323029,-0.058589499443769455,0.30892646312713623
1714858339082248700,3.423248779296875,0.12463584542274475,-0.05539371073246002,0.22690115869045258
1714858339092198100,3.4331982421875,0.07350318878889084,-0.06285055726766586,0.1693769246339798
1714858339102147600,3.443147705078125,0.03728422895073891,-0.0894821435213089,0.10972215235233307
1714858339112097000,3.453096923828125,0.021305272355675697,-0.0990695208311081,0.02024000883102417
1714858339122046700,3.463046630859375,0.023435799404978752,-0.10652636736631393,-0.10120004415512085
1714858339131996200,3.47299609375,0.038349490612745285,-0.09480846673250198,-0.20559588074684143
1714858339141945600,3.482945556640625,0.06711161136627197,-0.13422322273254395,-0.26418536901474
1714858339151895000,3.49289501953125,0.09161267429590225,-0.17257271707057953,-0.2737727463245392
1714858339161844500,3.502844482421875,0.1129179447889328,-0.21092219650745392,-0.25566327571868896
1714858339171794000,3.5127939453125,0.1310274302959442,-0.2205095738172531,-0.20879167318344116
1714858339181743400,3.522743408203125,0.15126743912696838,-0.18642114102840424,-0.14274533092975616
1714858339191693000,3.532693115234375,0.16724638640880585,-0.11185268312692642,-0.054328445345163345
1714858339201642500,3.542642578125,0.17683376371860504,-0.004261054564267397,0.041545283049345016
1714858339211592000,3.552592041015625,0.1928127259016037,0.10546109825372696,0.11611373722553253
1714858339221541400,3.562541259765625,0.20559588074684143,0.1789642870426178,0.16298533976078033
1714858339231490800,3.57249072265625,0.2205095738172531,0.21944430470466614,0.17150744795799255
1714858339241440300,3.582440185546875,0.22903168201446533,0.22370536625385284,0.13848426938056946
1714858339251390000,3.592389892578125,0.2162485122680664,0.19494324922561646,0.06498108059167862
1714858339261339400,3.60233935546875,0.1832253485918045,0.1406148076057434,-0.017044218257069588
1714858339271288800,3.612288818359375,0.15872427821159363,0.038349490612745285,-0.06711161136627197
1714858339281238300,3.62223828125,0.15872427821159363,-0.04367581009864807,-0.08735162019729614
1714858339291187700,3.632187744140625,0.16618113219738007,-0.07882951200008392,-0.0894821435213089
1714858339301137200,3.64213720703125,0.18002955615520477,-0.06391581892967224,-0.09267793595790863
1714858339311086600,3.652086669921875,0.2024000883102417,-0.0074568456038832664,-0.09374319761991501
1714858339321036300,3.662036376953125,0.22796641290187836,0.05113265663385391,-0.08415582776069641
1714858339330985700,3.67198583984375,0.2545980215072632,0.1033305749297142,-0.06391581892967224
1714858339340935200,3.68193505859375,0.27590328454971313,0.14807164669036865,-0.04367581009864807
1714858339350884600,3.691884521484375,0.28549066185951233,0.18535587191581726,-0.0330231711268425
1714858339360834000,3.701833984375,0.2929475009441376,0.1981390416622162,-0.04474107176065445
1714858339370783500,3.711783447265625,0.2876211702823639,0.17470324039459229,-0.06285055726766586
1714858339380733200,3.721733154296875,0.2599243223667145,0.12996216118335724,-0.06817687302827835
1714858339390682600,3.7316826171875,0.2300969511270523,0.08522108942270279,-0.06817687302827835
1714858339400632000,3.741632080078125,0.20559588074684143,0.038349490612745285,-0.0703074038028717
1714858339410581500,3.75158154296875,0.19387798011302948,-0.005326318088918924,-0.07882951200008392
1714858339420531000,3.761531005859375,0.188551664352417,-0.02876211889088154,-0.08628635853528976
1714858339430480400,3.77148046875,0.18002955615520477,-0.030892645940184593,-0.0894821435213089
1714858339440429800,3.781429931640625,0.17470324039459229,-0.02769685536623001,-0.09374319761991501
1714858339450379500,3.791379638671875,0.16298533976078033,-0.02024000883102417,-0.09374319761991501
1714858339460329000,3.801328857421875,0.1416800618171692,-0.018109481781721115,-0.08841688185930252
1714858339470278400,3.8112783203125,0.12037479132413864,-0.02876211889088154,-0.08522108942270279
1714858339480227800,3.821227783203125,0.1033305749297142,-0.03515370190143585,-0.07882951200008392
1714858339490177300,3.83117724609375,0.09161267429590225,-0.04048001766204834,-0.05965476483106613
1714858339500126700,3.841126708984375,0.08628635853528976,-0.038349490612745285,-0.038349490612745285
1714858339510076400,3.851076416015625,0.08309056609869003,-0.022370535880327225,-0.005326318088918924
1714858339520025900,3.86102587890625,0.07563371956348419,0.008522109128534794,0.02876211889088154
1714858339529975300,3.870975341796875,0.06924213469028473,0.03941475600004196,0.05113265663385391
1714858339539924700,3.8809248046875,0.06072002649307251,0.05539371073246002,0.05113265663385391
1714858339549874200,3.890874267578125,0.04793686419725418,0.061785291880369186,0.034088436514139175
1714858339559823600,3.90082373046875,0.03941475600004196,0.05326318368315697,0.011717899702489376
1714858339569773000,3.91077294921875,0.034088436514139175,0.042610544711351395,-0.02024000883102417
1714858339579722800,3.92072265625,0.0330231711268425,0.03515370190143585,-0.04793686419725418
1714858339589672200,3.930672119140625,0.038349490612745285,0.010652636177837849,-0.066046342253685
1714858339599621600,3.94062158203125,0.05965476483106613,-0.017044218257069588,-0.06924213469028473
1714858339609571000,3.950571044921875,0.09693899005651474,-0.04900212585926056,-0.05965476483106613
1714858339619520500,3.9605205078125,0.12783163785934448,-0.06817687302827835,-0.045806337147951126
1714858339629470000,3.970469970703125,0.13954953849315643,-0.05539371073246002,-0.03941475600004196
1714858339639419600,3.980419677734375,0.1363537460565567,-0.02450106292963028,-0.038349490612745285
1714858339649369000,3.990369140625,0.12357058376073837,0.006391582079231739,-0.041545283049345016
1714858339659318500,4.000318603515625,0.10546109825372696,0.030892645940184593,-0.04474107176065445
1714858339669268000,4.01026806640625,0.09693899005651474,0.042610544711351395,-0.050067391246557236
1714858339679217400,4.020217529296875,0.0990695208311081,0.042610544711351395,-0.05965476483106613
1714858339689166800,4.030166748046875,0.10759162902832031,0.03621896356344223,-0.07563371956348419
1714858339699116300,4.0401162109375,0.122505322098732,0.026631591841578484,-0.09693899005651474
1714858339709066000,4.05006591796875,0.14807164669036865,0.0074568456038832664,-0.11824426054954529
1714858339719015400,4.060015380859375,0.1693769246339798,-0.01597895473241806,-0.12996216118335724
1714858339728964900,4.06996484375,0.17683376371860504,-0.022370535880327225,-0.12889690697193146
1714858339738914300,4.079914306640625,0.15765902400016785,-0.011717899702489376,-0.11824426054954529
1714858339748864000,4.089864013671875,0.12037479132413864,0.009587372653186321,-0.10439583659172058
1714858339758813400,4.0998134765625,0.07669898122549057,0.021305272355675697,-0.08841688185930252
1714858339768763000,4.109762939453125,0.042610544711351395,0.022370535880327225,-0.06817687302827835
1714858339778712600,4.119712646484375,0.021305272355675697,0.021305272355675697,-0.042610544711351395
1714858339788662000,4.129662109375,0.011717899702489376,0.022370535880327225,-0.030892645940184593
1714858339798611500,4.139611572265625,0.005326318088918924,0.0330231711268425,-0.02450106292963028
1714858339808561200,4.14956103515625,0.010652636177837849,0.04048001766204834,-0.02450106292963028
1714858339818510600,4.159510498046875,0.038349490612745285,0.034088436514139175,-0.021305272355675697
1714858339828460000,4.1694599609375,0.06498108059167862,0.012783164158463478,-0.018109481781721115
1714858339838409700,4.17940966796875,0.07456845790147781,-0.0010652636410668492,-0.023435799404978752
1714858339848359200,4.189359130859375,0.05965476483106613,-0.0010652636410668492,-0.0330231711268425
1714858339858308900,4.199308837890625,0.030892645940184593,0.0074568456038832664,-0.038349490612745285
1714858339868258300,4.20925830078125,0.010652636177837849,0.011717899702489376,-0.038349490612745285
1714858339878207700,4.219207763671875,0.0031957910396158695,0.0031957910396158695,-0.034088436514139175
1714858339888157400,4.229157470703125,0.0031957910396158695,-0.012783164158463478,-0.023435799404978752
1714858339898107000,4.23910693359375,0.004261054564267397,-0.025566328316926956,-0.011717899702489376
1714858339908056300,4.249056396484375,-0.0021305272821336985,-0.02450106292963028,-0.004261054564267397
1714858339918006000,4.259006103515625,-0.017044218257069588,-0.0031957910396158695,0.0031957910396158695
1714858339927955500,4.26895556640625,-0.025566328316926956,0.017044218257069588,0.013848427683115005
1714858339937905000,4.27890478515625,-0.02450106292963028,0.02876211889088154,0.02450106292963028
1714858339947854600,4.2888544921875,-0.017044218257069588,0.03195790946483612,0.030892645940184593
1714858339957804000,4.298803955078125,-0.011717899702489376,0.030892645940184593,0.02876211889088154
1714858339967753500,4.30875341796875,-0.0074568456038832664,0.0330231711268425,0.014913691207766533
1714858339977703200,4.318703125,-0.006391582079231739,0.02876211889088154,-0.004261054564267397
1714858339987652600,4.328652587890625,-0.0010652636410668492,0.02024000883102417,-0.018109481781721115
1714858339997602300,4.338602294921875,0.011717899702489376,0.009587372653186321,-0.02450106292963028
1714858340007551700,4.3485517578125,0.022370535880327225,-0.0010652636410668492,-0.025566328316926956
1714858340017501200,4.358501220703125,0.025566328316926956,-0.0010652636410668492,-0.022370535880327225
1714858340027451000,4.368450927734375,0.021305272355675697,0.0021305272821336985,-0.014913691207766533
1714858340037400300,4.378400390625,0.014913691207766533,0.013848427683115005,-0.005326318088918924
1714858340047349800,4.388349853515625,0.009587372653186321,0.02876211889088154,0.0010652636410668492
1714858340057299200,4.39829931640625,0.010652636177837849,0.041545283049345016,0.0031957910396158695
1714858340067248600,4.40824853515625,0.018109481781721115,0.05113265663385391,-0.004261054564267397
1714858340077198300,4.4181982421875,0.029827382415533066,0.04793686419725418,-0.02024000883102417
1714858340087147800,4.428147705078125,0.03941475600004196,0.041545283049345016,-0.041545283049345016
1714858340097097200,4.43809716796875,0.042610544711351395,0.026631591841578484,-0.054328445345163345
1714858340107046700,4.448046630859375,0.042610544711351395,0.012783164158463478,-0.054328445345163345
1714858340116996000,4.45799609375,0.041545283049345016,0.010652636177837849,-0.042610544711351395
1714858340126945500,4.467945556640625,0.042610544711351395,0.017044218257069588,-0.02024000883102417
1714858340136895000,4.47789501953125,0.042610544711351395,0.026631591841578484,0.0031957910396158695
1714858340146844700,4.4878447265625,0.03728422895073891,0.03621896356344223,0.022370535880327225
1714858340156794000,4.497794189453125,0.026631591841578484,0.04367581009864807,0.030892645940184593
1714858340166743600,4.50774365234375,0.013848427683115005,0.04900212585926056,0.026631591841578484
1714858340176693000,4.51769287109375,0.005326318088918924,0.050067391246557236,0.0074568456038832664
1714858340186642400,4.527642333984375,0.0031957910396158695,0.05219791829586029,-0.008522109128534794
1714858340196591900,4.537591796875,0.009587372653186321,0.05113265663385391,-0.013848427683115005
1714858340206541600,4.54754150390625,0.026631591841578484,0.026631591841578484,-0.011717899702489376
1714858340216491000,4.557490966796875,0.05113265663385391,-0.006391582079231739,-0.009587372653186321
1714858340226440400,4.5674404296875,0.066046342253685,-0.026631591841578484,-0.012783164158463478
1714858340236390000,4.577389892578125,0.06285055726766586,-0.02769685536623001,-0.018109481781721115
1714858340246339300,4.58733935546875,0.04793686419725418,-0.006391582079231739,-0.023435799404978752
1714858340256288800,4.597288818359375,0.02450106292963028,0.021305272355675697,-0.02450106292963028
1714858340266238200,4.60723828125,0.004261054564267397,0.038349490612745285,-0.022370535880327225
1714858340276188000,4.61718798828125,-0.006391582079231739,0.042610544711351395,-0.010652636177837849
1714858340286137300,4.627137451171875,-0.0074568456038832664,0.046871598809957504,-0.0010652636410668492
1714858340296086800,4.637086669921875,0.0031957910396158695,0.041545283049345016,-0.0031957910396158695
1714858340306036200,4.6470361328125,0.017044218257069588,0.034088436514139175,-0.011717899702489376
1714858340315985700,4.656985595703125,0.02450106292963028,0.03515370190143585,-0.023435799404978752
1714858340325935000,4.66693505859375,0.026631591841578484,0.03621896356344223,-0.0330231711268425
1714858340335884800,4.676884765625,0.026631591841578484,0.023435799404978752,-0.03621896356344223
1714858340345834200,4.686834228515625,0.025566328316926956,0.0074568456038832664,-0.038349490612745285
1714858340355783700,4.69678369140625,0.023435799404978752,-0.0010652636410668492,-0.041545283049345016
1714858340365733000,4.706733154296875,0.025566328316926956,-0.005326318088918924,-0.03621896356344223
1714858340375682600,4.7166826171875,0.025566328316926956,0.0010652636410668492,-0.023435799404978752
1714858340385632000,4.726632080078125,0.017044218257069588,0.018109481781721115,-0.004261054564267397
1714858340395581400,4.73658154296875,0.0074568456038832664,0.03621896356344223,0.009587372653186321
1714858340405531100,4.74653125,0.004261054564267397,0.046871598809957504,0.013848427683115005
1714858340415480600,4.75648046875,0.0074568456038832664,0.04474107176065445,0.010652636177837849
1714858340425430000,4.766429931640625,0.018109481781721115,0.021305272355675697,-0.0021305272821336985
1714858340435379500,4.77637939453125,0.03195790946483612,-0.01597895473241806,-0.02450106292963028
1714858340445329000,4.786328857421875,0.034088436514139175,-0.03728422895073891,-0.042610544711351395
1714858340455278300,4.7962783203125,0.025566328316926956,-0.03515370190143585,-0.050067391246557236
1714858340465228000,4.80622802734375,0.018109481781721115,-0.022370535880327225,-0.04367581009864807
1714858340475177500,4.816177490234375,0.023435799404978752,-0.017044218257069588,-0.029827382415533066
1714858340485127000,4.826126953125,0.034088436514139175,-0.009587372653186321,-0.010652636177837849
1714858340495076400,4.836076416015625,0.041545283049345016,0.008522109128534794,-0.0010652636410668492
1714858340505025800,4.84602587890625,0.03728422895073891,0.02450106292963028,0.0021305272821336985
1714858340514975200,4.855975341796875,0.02769685536623001,0.0330231711268425,0.005326318088918924
1714858340524924700,4.865924560546875,0.019174745306372643,0.03728422895073891,0.010652636177837849
1714858340534874400,4.875874267578125,0.018109481781721115,0.04048001766204834,0.013848427683115005
1714858340544823800,4.88582373046875,0.022370535880327225,0.046871598809957504,0.012783164158463478
1714858340554773200,4.895773193359375,0.02769685536623001,0.042610544711351395,0.0074568456038832664
1714858340564722700,4.90572265625,0.03195790946483612,0.018109481781721115,-0.005326318088918924
1714858340574672100,4.915672119140625,0.03195790946483612,-0.0021305272821336985,-0.021305272355675697
1714858340584621600,4.92562158203125,0.02450106292963028,-0.013848427683115005,-0.03621896356344223
1714858340594571300,4.9355712890625,0.01597895473241806,-0.017044218257069588,-0.04367581009864807
1714858340604520700,4.945520751953125,0.0074568456038832664,-0.02024000883102417,-0.038349490612745285
1714858340614470100,4.95547021484375,0.004261054564267397,-0.018109481781721115,-0.023435799404978752
1714858340624419600,4.965419677734375,-0.0010652636410668492,-0.0074568456038832664,-0.0074568456038832664
1714858340634369000,4.975369140625,-0.0031957910396158695,0.004261054564267397,0.0010652636410668492
1714858340644318500,4.985318359375,0.0010652636410668492,0.012783164158463478,0.0010652636410668492
1714858340654268000,4.995267822265625,0.006391582079231739,0.012783164158463478,-0.004261054564267397
1714858340664217600,5.005217529296875,0.009587372653186321,0.012783164158463478,-0.008522109128534794
1714858340674167000,5.0151669921875,0.010652636177837849,0.013848427683115005,-0.012783164158463478
1714858340684116500,5.025116455078125,0.009587372653186321,0.011717899702489376,-0.009587372653186321
1714858340694066000,5.03506591796875,0.0074568456038832664,0.0031957910396158695,0.0031957910396158695
1714858340704015400,5.045015380859375,0.0021305272821336985,0.004261054564267397,0.009587372653186321
1714858340713964800,5.05496484375,-0.0021305272821336985,0.0031957910396158695,0.005326318088918924
1714858340723914200,5.064914306640625,-0.0010652636410668492,0,0.005326318088918924
1714858340733864000,5.074864013671875,-0.0031957910396158695,-0.0074568456038832664,0.004261054564267397
1714858340743813400,5.0848134765625,-0.005326318088918924,-0.012783164158463478,0.0021305272821336985
1714858340753762800,5.0947626953125,-0.009587372653186321,-0.011717899702489376,0.0031957910396158695
1714858340763712300,5.104712158203125,-0.013848427683115005,-0.005326318088918924,0.006391582079231739
1714858340773661700,5.11466162109375,-0.014913691207766533,0,0.006391582079231739
1714858340783611100,5.124611083984375,-0.012783164158463478,-0.004261054564267397,0.0010652636410668492
1714858340793560800,5.134560791015625,-0.011717899702489376,-0.014913691207766533,-0.004261054564267397
1714858340803510300,5.14451025390625,-0.009587372653186321,-0.022370535880327225,-0.009587372653186321
1714858340813459700,5.154459716796875,-0.008522109128534794,-0.022370535880327225,-0.013848427683115005
1714858340823409200,5.1644091796875,-0.004261054564267397,-0.011717899702489376,-0.012783164158463478
1714858340833358600,5.174358642578125,0.0021305272821336985,0,-0.004261054564267397
1714858340843308000,5.18430810546875,0.009587372653186321,0.008522109128534794,0.004261054564267397
1714858340853257500,5.194257568359375,0.01597895473241806,0.008522109128534794,0.008522109128534794
1714858340863207200,5.204207275390625,0.018109481781721115,-0.0021305272821336985,0.004261054564267397
1714858340873156600,5.214156494140625,0.014913691207766533,-0.012783164158463478,-0.0074568456038832664
1714858340883106000,5.22410595703125,0.009587372653186321,-0.02769685536623001,-0.017044218257069588
1714858340893055500,5.234055419921875,0.004261054564267397,-0.038349490612745285,-0.021305272355675697
1714858340903005000,5.2440048828125,-0.0010652636410668492,-0.041545283049345016,-0.01597895473241806
1714858340912954400,5.253954345703125,0,-0.02876211889088154,-0.005326318088918924
1714858340922904000,5.263904052734375,0.009587372653186321,-0.012783164158463478,0.004261054564267397
1714858340932853500,5.273853515625,0.019174745306372643,-0.008522109128534794,0.011717899702489376
1714858340942803000,5.283802978515625,0.02450106292963028,-0.0010652636410668492,0.01597895473241806
1714858340952752400,5.29375244140625,0.026631591841578484,0.0074568456038832664,0.013848427683115005
1714858340962701800,5.303701904296875,0.03195790946483612,0.010652636177837849,0.005326318088918924
1714858340972651300,5.3136513671875,0.034088436514139175,0.009587372653186321,-0.006391582079231739
1714858340982600700,5.3236005859375,0.0330231711268425,0.010652636177837849,-0.017044218257069588
1714858340992550400,5.33355029296875,0.0330231711268425,0.005326318088918924,-0.02024000883102417
1714858341002499800,5.343499755859375,0.038349490612745285,0.0010652636410668492,-0.019174745306372643
1714858341012449300,5.35344921875,0.045806337147951126,-0.006391582079231739,-0.009587372653186321
1714858341022398700,5.363398681640625,0.054328445345163345,-0.011717899702489376,0.005326318088918924
1714858341032348200,5.37334814453125,0.05539371073246002,-0.005326318088918924,0.019174745306372643
1714858341042297600,5.383297607421875,0.050067391246557236,0.006391582079231739,0.02876211889088154
1714858341052247300,5.393247314453125,0.04900212585926056,0.019174745306372643,0.029827382415533066
1714858341062196700,5.40319677734375,0.0564589723944664,0.02450106292963028,0.02450106292963028
1714858341072146200,5.413146240234375,0.06711161136627197,0.02024000883102417,0.011717899702489376
1714858341082095600,5.423095703125,0.07456845790147781,0.014913691207766533,-0.006391582079231739
1714858341092045000,5.433045166015625,0.07669898122549057,0.0074568456038832664,-0.021305272355675697
1714858341101994500,5.442994384765625,0.07350318878889084,0,-0.030892645940184593
1714858341111944000,5.45294384765625,0.06711161136627197,-0.005326318088918924,-0.030892645940184593
1714858341121893600,5.4628935546875,0.06285055726766586,-0.010652636177837849,-0.023435799404978752
1714858341131843000,5.472843017578125,0.06285055726766586,-0.02024000883102417,-0.012783164158463478
1714858341141792500,5.48279248046875,0.058589499443769455,-0.021305272355675697,-0.004261054564267397
1714858341151742000,5.492741943359375,0.05326318368315697,-0.021305272355675697,-0.0010652636410668492
1714858341161691400,5.50269140625,0.04793686419725418,-0.017044218257069588,0.0010652636410668492
1714858341171640800,5.512640869140625,0.046871598809957504,-0.009587372653186321,0.0010652636410668492
1714858341181590500,5.522590576171875,0.046871598809957504,-0.0074568456038832664,0.0021305272821336985
1714858341191540000,5.5325400390625,0.04793686419725418,-0.008522109128534794,0.005326318088918924
1714858341201489400,5.542489501953125,0.046871598809957504,-0.012783164158463478,0.006391582079231739
1714858341211438800,5.55243896484375,0.041545283049345016,-0.009587372653186321,0.005326318088918924
1714858341221388300,5.56238818359375,0.03621896356344223,-0.010652636177837849,0.006391582079231739
1714858341231337700,5.572337646484375,0.02876211889088154,-0.014913691207766533,0.006391582079231739
1714858341241287200,5.582287109375,0.018109481781721115,-0.019174745306372643,0.005326318088918924
1714858341251236900,5.59223681640625,0.008522109128534794,-0.018109481781721115,0.008522109128534794
1714858341261186300,5.602186279296875,0.006391582079231739,-0.010652636177837849,0.012783164158463478
1714858341271135700,5.6121357421875,0.009587372653186321,-0.0021305272821336985,0.013848427683115005
1714858341281085200,5.622085205078125,0.01597895473241806,0.005326318088918924,0.0074568456038832664
1714858341291034600,5.63203466796875,0.025566328316926956,0.008522109128534794,-0.005326318088918924
1714858341300984000,5.641984130859375,0.03941475600004196,0.005326318088918924,-0.013848427683115005
1714858341310933800,5.651933837890625,0.045806337147951126,0.0010652636410668492,-0.017044218257069588
1714858341320883200,5.66188330078125,0.038349490612745285,0.0031957910396158695,-0.017044218257069588
1714858341330832600,5.67183251953125,0.019174745306372643,0.008522109128534794,-0.02024000883102417
1714858341340782000,5.681781982421875,0,0.010652636177837849,-0.02876211889088154
1714858341350731500,5.6917314453125,-0.0074568456038832664,-0.0010652636410668492,-0.034088436514139175
1714858341360681000,5.701680908203125,0.0010652636410668492,-0.026631591841578484,-0.038349490612745285
1714858341370630400,5.71163037109375,0.019174745306372643,-0.066046342253685,-0.04367581009864807
1714858341380580000,5.721580078125,0.03195790946483612,-0.09587372839450836,-0.050067391246557236
1714858341390529500,5.731529541015625,0.02876211889088154,-0.09587372839450836,-0.06498108059167862
1714858341400479000,5.74147900390625,0.02769685536623001,-0.07563371956348419,-0.0894821435213089
1714858341410428400,5.751428466796875,0.023435799404978752,-0.06072002649307251,-0.1129179447889328
1714858341420377900,5.7613779296875,0.0021305272821336985,-0.021305272355675697,-0.15765902400016785
1714858341430327300,5.771327392578125,0.034088436514139175,0.009587372653186321,-0.16298533976078033
1714858341440277000,5.781277099609375,0.07882951200008392,-0.0021305272821336985,-0.10865689069032669
1714858341450226400,5.791226318359375,0.10013478249311447,0.01597895473241806,-0.05326318368315697
1714858341460176000,5.80117578125,0.10439583659172058,0.045806337147951126,-0.013848427683115005
1714858341470125300,5.811125244140625,0.10759162902832031,0.06817687302827835,0.006391582079231739
1714858341480074800,5.82107470703125,0.12144005298614502,0.08522108942270279,0.01597895473241806
1714858341490024200,5.831024169921875,0.1416800618171692,0.0990695208311081,0.019174745306372643
1714858341499973600,5.8409736328125,0.17576849460601807,0.1033305749297142,0.02024000883102417
1714858341509923300,5.85092333984375,0.20559588074684143,0.1033305749297142,0.018109481781721115
1714858341519872800,5.860872802734375,0.2258358895778656,0.10546109825372696,0.011717899702489376
1714858341529822200,5.870822265625,0.23435799777507782,0.11078742146492004,-0.004261054564267397
1714858341539771600,5.880771728515625,0.24074958264827728,0.11078742146492004,-0.02024000883102417
1714858341549721000,5.89072119140625,0.24394537508487701,0.1033305749297142,-0.029827382415533066
1714858341559670500,5.90067041015625,0.24288010597229004,0.09480846673250198,-0.041545283049345016
1714858341569620000,5.910619873046875,0.23755379021167755,0.08309056609869003,-0.04900212585926056
1714858341579569700,5.920569580078125,0.23435799777507782,0.06072002649307251,-0.050067391246557236
1714858341589519000,5.93051904296875,0.2300969511270523,0.04900212585926056,-0.045806337147951126
1714858341599468500,5.940468505859375,0.2258358895778656,0.05113265663385391,-0.04367581009864807
1714858341609418000,5.95041796875,0.2077264040708542,0.050067391246557236,-0.04900212585926056
1714858341619367400,5.960367431640625,0.18216007947921753,0.066046342253685,-0.058589499443769455
1714858341629316900,5.97031689453125,0.16192007064819336,0.07882951200008392,-0.061785291880369186
1714858341639266600,5.9802666015625,0.15765902400016785,0.08628635853528976,-0.061785291880369186
1714858341649216000,5.990216064453125,0.16405059397220612,0.09161267429590225,-0.061785291880369186
1714858341659165400,6.00016552734375,0.16831165552139282,0.08735162019729614,-0.06285055726766586
1714858341669115000,6.010114990234375,0.17683376371860504,0.07243792712688446,-0.05752423778176308
1714858341679064300,6.020064208984375,0.17576849460601807,0.06711161136627197,-0.05539371073246002
1714858341689013800,6.030013671875,0.16618113219738007,0.07137266546487808,-0.05326318368315697
1714858341698963200,6.039963134765625,0.1597895473241806,0.08735162019729614,-0.04474107176065445
1714858341708913000,6.049912841796875,0.16085481643676758,0.10865689069032669,-0.025566328316926956
1714858341718862300,6.0598623046875,0.16298533976078033,0.12357058376073837,0.0074568456038832664
1714858341728811800,6.069811767578125,0.16405059397220612,0.14381058514118195,0.04474107176065445
1714858341738761200,6.07976123046875,0.16618113219738007,0.17470324039459229,0.0798947736620903
1714858341748710700,6.089710693359375,0.17257271707057953,0.19494324922561646,0.11504847556352615
1714858341758660000,6.09966015625,0.1832253485918045,0.21518325805664062,0.1363537460565567
1714858341768609800,6.10960986328125,0.20346535742282867,0.23329274356365204,0.1416800618171692
1714858341778559200,6.119559326171875,0.23648852109909058,0.23329274356365204,0.13741901516914368
1714858341788508400,6.12950830078125,0.28868645429611206,0.20346535742282867,0.12463584542274475
1714858341798457900,6.139457763671875,0.3430148959159851,0.15659375488758087,0.09054741263389587
1714858341808407300,6.1494072265625,0.3802991211414337,0.12570111453533173,0.03941475600004196
1714858341818356700,6.159356689453125,0.39308229088783264,0.12463584542274475,-0.013848427683115005
1714858341828306200,6.16930615234375,0.3941475450992584,0.15339796245098114,-0.05326318368315697
1714858341838255600,6.179255615234375,0.39840859174728394,0.18961693346500397,-0.07350318878889084
1714858341848205000,6.189205078125,0.40160438418388367,0.21305273473262787,-0.09054741263389587
1714858341858154500,6.199154541015625,0.4090612530708313,0.22903168201446533,-0.09267793595790863
1714858341868104000,6.20910400390625,0.43036651611328125,0.2215748429298401,-0.07137266546487808
1714858341878053400,6.219053466796875,0.4559328258037567,0.18535587191581726,-0.038349490612745285
1714858341888002800,6.2290029296875,0.47830337285995483,0.13848426938056946,-0.0074568456038832664
1714858341897952300,6.2389521484375,0.4889560043811798,0.10972215235233307,0.013848427683115005
1714858341907901700,6.248901611328125,0.48149916529655457,0.12357058376073837,0.03515370190143585
1714858341917851100,6.25885107421875,0.4655202031135559,0.18642114102840424,0.0564589723944664
1714858341927800600,6.268800537109375,0.44847598671913147,0.2780338227748871,0.07137266546487808
1714858341937750000,6.27875,0.43143177032470703,0.3802991211414337,0.08096003532409668
1714858341947699500,6.288699462890625,0.4186486005783081,0.5006738901138306,0.10439583659172058
1714858341957649000,6.29864892578125,0.42504018545150757,0.6146571040153503,0.14807164669036865
1714858341967598300,6.308598388671875,0.4665854871273041,0.6668550372123718,0.19600850343704224
1714858341977547500,6.318547607421875,0.5251749753952026,0.641288697719574,0.21944430470466614
1714858341987497000,6.3284970703125,0.5826992392539978,0.590156078338623,0.21518325805664062
1714858341997446400,6.3384462890625,0.6008086800575256,0.5422192215919495,0.19068218767642975
1714858342007395800,6.348395751953125,0.5816339254379272,0.49108654260635376,0.15446323156356812
1714858342017345300,6.35834521484375,0.5422192215919495,0.44847598671913147,0.10652636736631393
1714858342027294700,6.368294677734375,0.48682549595832825,0.42930126190185547,0.07563371956348419
1714858342037244200,6.378244140625,0.43143177032470703,0.422909677028656,0.0564589723944664
1714858342047193600,6.388193603515625,0.3962780833244324,0.41119176149368286,0.038349490612745285
1714858342057143000,6.39814306640625,0.3909517526626587,0.3866907060146332,0.026631591841578484
1714858342067092500,6.408092529296875,0.4037349224090576,0.3526022732257843,0.02024000883102417
1714858342077042000,6.4180419921875,0.43462756276130676,0.30253487825393677,0.0010652636410668492
1714858342086991400,6.427991455078125,0.47723811864852905,0.2918822467327118,-0.019174745306372643
1714858342096940800,6.43794091796875,0.5102612972259521,0.3238401412963867,-0.0031957910396158695
1714858342106890200,6.44789013671875,0.5347623229026794,0.35899385809898376,0.05539371073246002
1714858342116840000,6.45783984375,0.5475454926490784,0.37284228205680847,0.12570111453533173
1714858342126789400,6.467789306640625,0.5315665602684021,0.35899385809898376,0.18002955615520477
1714858342136738800,6.47773876953125,0.5038697123527527,0.3153180480003357,0.2205095738172531
1714858342146688300,6.487688232421875,0.48149916529655457,0.22477063536643982,0.2620548605918884
1714858342156637700,6.4976376953125,0.44847598671913147,0.12570111453533173,0.2961432933807373
1714858342166587100,6.507587158203125,0.4143875539302826,0.10226531326770782,0.3142527639865875
1714858342176536800,6.517536865234375,0.39308229088783264,0.15659375488758087,0.320644348859787
1714858342186486300,6.527486328125,0.37284228205680847,0.2876211702823639,0.30786117911338806
1714858342196435700,6.537435791015625,0.34088435769081116,0.4655202031135559,0.2588590681552887
1714858342206385200,6.54738525390625,0.3142527639865875,0.5869602560997009,0.1928127259016037
1714858342216334600,6.55733447265625,0.33662331104278564,0.5869602560997009,0.14913691580295563
1714858342226284000,6.567283935546875,0.40693071484565735,0.45486757159233093,0.13422322273254395
1714858342236233500,6.5772333984375,0.46765074133872986,0.22264009714126587,0.1129179447889328
1714858342246183200,6.58718310546875,0.4569981098175049,-0.022370535880327225,0.034088436514139175
1714858342256132600,6.597132568359375,0.35473278164863586,-0.16085481643676758,-0.1310274302959442
1714858342266082000,6.60708203125,0.28549066185951233,-0.11717899888753891,-0.3110569715499878
1714858342276031500,6.617031494140625,0.29401275515556335,0.0010652636410668492,-0.442084401845932
1714858342285981000,6.62698095703125,0.3110569715499878,0.08415582776069641,-0.5454149842262268
1714858342295930400,6.636930419921875,0.34940648078918457,0.2162485122680664,-0.6253097653388977
1714858342305880000,6.646880126953125,0.34514543414115906,0.3707117438316345,-0.6604634523391724
1714858342315829500,6.65682958984375,0.36858120560646057,0.5060002207756042,-0.619983434677124
1714858342325779000,6.666779052734375,0.433562308549881,0.5219792127609253,-0.5166528820991516
1714858342335728400,6.676728271484375,0.46338969469070435,0.35047173500061035,-0.34621068835258484
1714858342345677800,6.686677734375,0.45806336402893066,0.27483803033828735,-0.16405059397220612
1714858342355627300,6.696627197265625,0.44421494007110596,0.3302317261695862,-0.03941475600004196
1714858342365576700,6.70657666015625,0.39734333753585815,0.4431496858596802,-0.0010652636410668492
1714858342375526400,6.7165263671875,0.320644348859787,0.5816339254379272,-0.05113265663385391
1714858342385475800,6.726475830078125,0.2673811614513397,0.7009434700012207,-0.13528847694396973
1714858342395425300,6.73642529296875,0.253532737493515,0.678572952747345,-0.21837905049324036
1714858342405374700,6.746374755859375,0.2727074921131134,0.5933518409729004,-0.28975170850753784
1714858342415324200,6.75632421875,0.309991717338562,0.49108654260635376,-0.3249054253101349
1714858342425273600,6.766273681640625,0.3249054253101349,0.45806336402893066,-0.3376885652542114
1714858342435223000,6.77622314453125,0.3142527639865875,0.5145223140716553,-0.31212225556373596
1714858342445172700,6.7861728515625,0.28549066185951233,0.6231792569160461,-0.21518325805664062
1714858342455122200,6.7961220703125,0.2673811614513397,0.6849645376205444,-0.07456845790147781
1714858342465071600,6.806071533203125,0.26631590723991394,0.6242445111274719,0.0021305272821336985
1714858342475021000,6.81602099609375,0.23861905932426453,0.5113265514373779,-0.014913691207766533
1714858342484970500,6.825970458984375,0.1789642870426178,0.38775596022605896,-0.04900212585926056
1714858342494920000,6.835919921875,0.12783163785934448,0.26631590723991394,-0.04793686419725418
1714858342504869600,6.84586962890625,0.11504847556352615,0.16724638640880585,-0.06285055726766586
1714858342514819000,6.855819091796875,0.14274533092975616,0.10120004415512085,-0.13848426938056946
1714858342524768500,6.8657685546875,0.17044217884540558,0.05219791829586029,-0.24181485176086426
1714858342534718000,6.875718017578125,0.1736379712820053,-0.006391582079231739,-0.3483411967754364
1714858342544667400,6.88566748046875,0.17150744795799255,-0.066046342253685,-0.43569281697273254
1714858342554616800,6.895616943359375,0.18642114102840424,-0.1981390416622162,-0.4804339110851288
1714858342564566300,6.905566162109375,0.2024000883102417,-0.4101265072822571,-0.4804339110851288
1714858342574516000,6.915515869140625,0.20026956498622894,-0.574177086353302,-0.4559328258037567
1714858342584465400,6.92546533203125,0.17683376371860504,-0.7137266397476196,-0.4175833463668823
1714858342594414800,6.935414794921875,0.13422322273254395,-0.7882950901985168,-0.37497279047966003
1714858342604364300,6.9453642578125,0.08096003532409668,-0.8181225061416626,-0.320644348859787
1714858342614313700,6.955313720703125,0.058589499443769455,-0.8074698448181152,-0.2684464454650879
1714858342624263200,6.96526318359375,0.07350318878889084,-0.7659245729446411,-0.22796641290187836
1714858342634212900,6.975212890625,0.10972215235233307,-0.6530066132545471,-0.2024000883102417
1714858342644162300,6.985162353515625,0.1555284857749939,-0.5518065690994263,-0.1693769246339798
1714858342654111700,6.99511181640625,0.17576849460601807,-0.48682549595832825,-0.11398320645093918
1714858342664061200,7.005061279296875,0.17044217884540558,-0.43462756276130676,-0.04048001766204834
1714858342674010600,7.0150107421875,0.18002955615520477,-0.4154528081417084,0.04900212585926056
1714858342683960000,7.0249599609375,0.19494324922561646,-0.46871599555015564,0.12996216118335724
1714858342693909500,7.034909423828125,0.16831165552139282,-0.5166528820991516,0.18216007947921753
1714858342703859200,7.044859130859375,0.06285055726766586,-0.5305013060569763,0.20985694229602814
1714858342713808600,7.05480859375,-0.045806337147951126,-0.5251749753952026,0.2162485122680664
1714858342723758000,7.064758056640625,-0.2737727463245392,-0.4612591564655304,0.17470324039459229
1714858342733707500,7.07470751953125,-0.3440801501274109,-0.2908169627189636,0.08628635853528976
1714858342743657000,7.084656982421875,-0.18535587191581726,-0.22264009714126587,0.023435799404978752
1714858342753606400,7.0946064453125,-0.06498108059167862,-0.2972085475921631,0.011717899702489376
1714858342763556000,7.10455615234375,-0.08309056609869003,-0.38775596022605896,0.01597895473241806
1714858342773505500,7.114505615234375,-0.14274533092975616,-0.46871599555015564,-0.02024000883102417
1714858342783455000,7.124455078125,-0.188551664352417,-0.49108654260635376,-0.09054741263389587
1714858342793404400,7.134404296875,-0.253532737493515,-0.5123918056488037,-0.1406148076057434
1714858342803353900,7.144353759765625,-0.33236226439476013,-0.5731118321418762,-0.1502021700143814
1714858342813303300,7.15430322265625,-0.3813643753528595,-0.6988129615783691,-0.1267663687467575
1714858342823252700,7.164252685546875,-0.3568633198738098,-0.8862993717193604,-0.09161267429590225
1714858342833202400,7.174202392578125,-0.24714116752147675,-1.0162614583969116,-0.08628635853528976
1714858342843152000,7.18415185546875,-0.07243792712688446,-0.9640635848045349,-0.1267663687467575
1714858342853101300,7.194101318359375,0.12037479132413864,-0.8223835229873657,-0.16831165552139282
1714858342863050800,7.20405078125,0.2492716908454895,-0.8426235318183899,-0.16831165552139282
1714858342873000200,7.214000244140625,0.2492716908454895,-0.9725856781005859,-0.1459411233663559
1714858342882949600,7.22394970703125,0.14381058514118195,-1.1174615621566772,-0.15126743912696838
1714858342892899300,7.2338994140625,-0.02450106292963028,-1.247423768043518,-0.19068218767642975
1714858342902848800,7.243848876953125,-0.23648852109909058,-1.3049479722976685,-0.253532737493515
1714858342912798200,7.253798095703125,-0.45380231738090515,-1.3475584983825684,-0.3344927728176117
1714858342922747600,7.26374755859375,-0.6487455368041992,-1.3859080076217651,-0.452737033367157
1714858342932697000,7.273697021484375,-0.8277098536491394,-1.0918952226638794,-0.5858950018882751
1714858342942646500,7.283646484375,-1.004543662071228,-0.5230444669723511,-0.5880255103111267
1714858342952596000,7.293595947265625,-1.076981544494629,0.058589499443769455,-0.3611243665218353
1714858342962545700,7.303545654296875,-0.9353014826774597,0.2908169627189636,0.034088436514139175
1714858342972495000,7.3134951171875,-0.6796382069587708,0.4037349224090576,0.45806336402893066
1714858342982444500,7.323444580078125,-0.442084401845932,0.5933518409729004,0.8277098536491394
1714858342992394000,7.33339404296875,-0.2833601236343384,0.7222487330436707,1.0759162902832031
1714858343002343400,7.343343505859375,-0.20453062653541565,0.6125265955924988,1.1696594953536987
1714858343012292900,7.35329296875,-0.22690115869045258,0.28975170850753784,1.101482629776001
1714858343022242300,7.3632421875,-0.3866907060146332,0.034088436514139175,0.9139962196350098
1714858343032191700,7.373191650390625,-0.6902908682823181,-0.06711161136627197,0.6615287065505981
1714858343042141200,7.38314111328125,-1.0418277978897095,-0.11398320645093918,0.4005391299724579
1714858343052090600,7.393090576171875,-1.3592764139175415,-0.09054741263389587,0.18216007947921753
1714858343062040000,7.4030400390625,-1.5425018072128296,0.12570111453533173,0.014913691207766533
1714858343071989500,7.412989501953125,-1.538240671157837,0.5091960430145264,-0.0798947736620903
1714858343081939000,7.42293896484375,-1.3880385160446167,0.951280415058136,-0.04793686419725418
1714858343091888400,7.432888427734375,-1.1526153087615967,1.2495542764663696,0.10439583659172058
1714858343101837800,7.442837890625,-0.8820382952690125,1.3156006336212158,0.35899385809898376
1714858343111787300,7.452787353515625,-0.6242445111274719,1.3187963962554932,0.5795034170150757
1714858343121736700,7.46273681640625,-0.43995389342308044,1.3283838033676147,0.5944170951843262
1714858343131686100,7.47268603515625,-0.31318750977516174,1.2335753440856934,0.4665854871273041
1714858343141635600,7.482635498046875,-0.27909907698631287,0.9619330763816833,0.32597067952156067
1714858343151585000,7.4925849609375,-0.3430148959159851,0.5912213325500488,0.1789642870426178
1714858343161534500,7.502534423828125,-0.3994738757610321,0.13848426938056946,-0.009587372653186321
1714858343171484000,7.51248388671875,-0.3994738757610321,-0.3110569715499878,-0.2354232668876648
1714858343181433300,7.522433349609375,-0.33662331104278564,-0.7222487330436707,-0.4410191476345062
1714858343191382500,7.532382568359375,-0.23861905932426453,-1.1302447319030762,-0.602939248085022
1714858343201332000,7.54233203125,-0.188551664352417,-1.4626070261001587,-0.7776424288749695
1714858343211281400,7.552281494140625,-0.1693769246339798,-1.617070198059082,-0.9001477956771851
1714858343221230800,7.56223095703125,-0.12570111453533173,-1.6437017917633057,-0.9225183129310608
1714858343231180300,7.57218017578125,-0.10546109825372696,-1.5169354677200317,-0.8724509477615356
1714858343241129700,7.582129638671875,-0.0990695208311081,-1.282577395439148,-0.754206657409668
1714858343251079200,7.5920791015625,-0.08202529698610306,-1.1110700368881226,-0.6242445111274719
1714858343261028600,7.602028564453125,-0.07776424288749695,-0.8309056162834167,-0.498543381690979
1714858343270978000,7.61197802734375,-0.06072002649307251,-0.5816339254379272,-0.38349491357803345
1714858343280927500,7.621927490234375,-0.0330231711268425,-0.4239749312400818,-0.35153698921203613
1714858343290877000,7.631876953125,-0.02876211889088154,-0.253532737493515,-0.37284228205680847
1714858343300826400,7.641826416015625,-0.05965476483106613,-0.12037479132413864,-0.3526022732257843
1714858343310775800,7.65177587890625,-0.0703074038028717,-0.014913691207766533,-0.2822948694229126
1714858343320725200,7.661725341796875,-0.04367581009864807,-0.08309056609869003,-0.18109482526779175
1714858343330674700,7.6716748046875,-0.029827382415533066,-0.25140222907066345,-0.09054741263389587
1714858343340624100,7.6816240234375,-0.038349490612745285,-0.4388886094093323,-0.02024000883102417
1714858343350573600,7.691573486328125,-0.06285055726766586,-0.5571328997612,0.013848427683115005
1714858343360523000,7.70152294921875,-0.061785291880369186,-0.5592634081840515,0.010652636177837849
1714858343370472400,7.711472412109375,-0.09480846673250198,-0.49215179681777954,-0.0021305272821336985
1714858343380422000,7.721421875,-0.18961693346500397,-0.3760380744934082,-0.009587372653186321
1714858343390371300,7.731371337890625,-0.2950780391693115,-0.22370536625385284,-0.0021305272821336985
1714858343400320800,7.74132080078125,-0.3760380744934082,-0.10972215235233307,0.03728422895073891
1714858343410270200,7.751270263671875,-0.4474107325077057,-0.03941475600004196,0.08415582776069641
1714858343420220000,7.761219970703125,-0.48789075016975403,-0.013848427683115005,0.11930952966213226
1714858343430169300,7.77116943359375,-0.49108654260635376,-0.02769685536623001,0.1406148076057434
1714858343440118800,7.781118896484375,-0.46765074133872986,-0.05326318368315697,0.1555284857749939
1714858343450068200,7.791068115234375,-0.43462756276130676,-0.06924213469028473,0.14487585425376892
1714858343460017700,7.801017578125,-0.36858120560646057,-0.0798947736620903,0.1310274302959442
1714858343469967000,7.810967041015625,-0.2908169627189636,-0.11504847556352615,0.13954953849315643
1714858343479916500,7.82091650390625,-0.22370536625385284,-0.18109482526779175,0.15659375488758087
1714858343489866200,7.8308662109375,-0.1736379712820053,-0.21305273473262787,0.15659375488758087
1714858343499815700,7.840815673828125,-0.17470324039459229,-0.17576849460601807,0.13422322273254395
1714858343509765000,7.85076513671875,-0.2300969511270523,-0.0564589723944664,0.10439583659172058
1714858343519714600,7.860714599609375,-0.3067959249019623,0.06817687302827835,0.12889690697193146
1714858343529664000,7.8706640625,-0.38242965936660767,0.14381058514118195,0.23435799777507782
1714858343539613400,7.880613525390625,-0.46871599555015564,0.16085481643676758,0.37816858291625977
1714858343549563100,7.890563232421875,-0.5560676455497742,0.14913691580295563,0.5028044581413269
1714858343559512600,7.9005126953125,-0.5858950018882751,0.09161267429590225,0.5922865867614746
1714858343569462000,7.9104619140625,-0.5688507556915283,0.0074568456038832664,0.6370276808738708
1714858343579411500,7.920411376953125,-0.5518065690994263,-0.054328445345163345,0.6040045022964478
1714858343589361000,7.93036083984375,-0.519848644733429,-0.07563371956348419,0.4953475892543793
1714858343599310300,7.940310302734375,-0.46765074133872986,-0.0564589723944664,0.3419496417045593
1714858343609259800,7.950259765625,-0.40266966819763184,-0.05219791829586029,0.18535587191581726
1714858343619209500,7.96020947265625,-0.33129698038101196,-0.09693899005651474,0.058589499443769455
1714858343629159000,7.970158935546875,-0.26525065302848816,-0.1555284857749939,-0.041545283049345016
1714858343639108400,7.9801083984375,-0.21518325805664062,-0.21837905049324036,-0.12463584542274475
1714858343649057800,7.990057861328125,-0.18961693346500397,-0.2503369450569153,-0.18748639523983002
1714858343659007200,8.00000732421875,-0.19387798011302948,-0.24820642173290253,-0.2215748429298401
1714858343668956700,8.009956787109376,-0.23648852109909058,-0.2162485122680664,-0.21944430470466614
1714858343678906400,8.01990625,-0.31318750977516174,-0.16831165552139282,-0.1981390416622162
1714858343688855800,8.029855712890624,-0.40160438418388367,-0.10865689069032669,-0.16298533976078033
1714858343698805200,8.03980517578125,-0.4601939022541046,-0.09374319761991501,-0.12463584542274475
1714858343708754700,8.049754638671875,-0.45912861824035645,-0.13422322273254395,-0.09693899005651474
1714858343718704000,8.0597041015625,-0.4154528081417084,-0.18109482526779175,-0.0894821435213089
1714858343728653600,8.069653564453125,-0.3526022732257843,-0.20985694229602814,-0.1033305749297142
1714858343738603000,8.07960302734375,-0.28975170850753784,-0.21411798894405365,-0.14381058514118195
1714858343748552700,8.089552734375,-0.23329274356365204,-0.18642114102840424,-0.20133483409881592
1714858343758502100,8.099502197265625,-0.19174745678901672,-0.14274533092975616,-0.2545980215072632
1714858343768451600,8.10945166015625,-0.18002955615520477,-0.0894821435213089,-0.2833601236343384
1714858343778401000,8.119401123046876,-0.20559588074684143,-0.012783164158463478,-0.27909907698631287
1714858343788350500,8.1293505859375,-0.25140222907066345,0.054328445345163345,-0.23755379021167755
1714858343798300000,8.1392998046875,-0.2865559160709381,0.08415582776069641,-0.17470324039459229
1714858343808249300,8.149249267578124,-0.3067959249019623,0.06817687302827835,-0.0990695208311081
1714858343818199000,8.159198974609374,-0.3185138404369354,-0.017044218257069588,-0.009587372653186321
1714858343828148500,8.1691484375,-0.3302317261695862,-0.07137266546487808,0.06498108059167862
1714858343838098000,8.179097900390625,-0.3536675274372101,-0.07776424288749695,0.11398320645093918
1714858343848047400,8.18904736328125,-0.37923386693000793,-0.07882951200008392,0.13209268450737
1714858343857996800,8.198996826171875,-0.37284228205680847,-0.08202529698610306,0.122505322098732
1714858343867946200,8.2089462890625,-0.3238401412963867,-0.08415582776069641,0.11078742146492004
1714858343877896000,8.21889599609375,-0.24607589840888977,-0.10120004415512085,0.10226531326770782
1714858343887845400,8.228845458984376,-0.15872427821159363,-0.11611373722553253,0.07456845790147781
1714858343897794800,8.238794921875,-0.0894821435213089,-0.09800425171852112,0.023435799404978752
1714858343907744300,8.248744140625,-0.07456845790147781,-0.07776424288749695,-0.046871598809957504
1714858343917693700,8.258693603515624,-0.11185268312692642,-0.06285055726766586,-0.12357058376073837
1714858343927643100,8.26864306640625,-0.16831165552139282,-0.05752423778176308,-0.1693769246339798
1714858343937592600,8.278592529296875,-0.2077264040708542,-0.09800425171852112,-0.16618113219738007
1714858343947542300,8.288542236328125,-0.22903168201446533,-0.11717899888753891,-0.12889690697193146
1714858343957491700,8.29849169921875,-0.23329274356365204,-0.09374319761991501,-0.07456845790147781
1714858343967441200,8.308441162109375,-0.23329274356365204,-0.06072002649307251,-0.02450106292963028
1714858343977390600,8.318390625,-0.23755379021167755,-0.005326318088918924,0.0010652636410668492
1714858343987340000,8.328340087890625,-0.24394537508487701,0.07243792712688446,0.0031957910396158695
1714858343997289500,8.33828955078125,-0.2300969511270523,0.12357058376073837,-0.0074568456038832664
1714858344007239200,8.3482392578125,-0.1832253485918045,0.12783163785934448,-0.02876211889088154
1714858344017188600,8.358188720703126,-0.12037479132413864,0.09054741263389587,-0.07456845790147781
1714858344027138000,8.368137939453124,-0.066046342253685,0.12463584542274475,-0.14381058514118195
1714858344037087500,8.37808740234375,-0.022370535880327225,0.1832253485918045,-0.2024000883102417
1714858344047037000,8.388036865234374,0.004261054564267397,0.12357058376073837,-0.19387798011302948
1714858344056986400,8.397986328125,0.006391582079231739,0.06498108059167862,-0.14381058514118195
1714858344066935800,8.407935791015625,0,0.042610544711351395,-0.07563371956348419
1714858344076885500,8.417885498046875,-0.0074568456038832664,0.041545283049345016,-0.018109481781721115
1714858344086835000,8.4278349609375,-0.008522109128534794,0.054328445345163345,-0.006391582079231739
1714858344096784400,8.437784423828125,0.0021305272821336985,0.06391581892967224,-0.038349490612745285
1714858344106733800,8.44773388671875,0.021305272355675697,0.07456845790147781,-0.09800425171852112
1714858344116683300,8.457683349609376,0.026631591841578484,0.11611373722553253,-0.15872427821159363
1714858344126632700,8.4676328125,0.025566328316926956,0.17044217884540558,-0.19494324922561646
1714858344136582100,8.47758203125,0.022370535880327225,0.25566327571868896,-0.22796641290187836
1714858344146531300,8.48753125,0.012783164158463478,0.3536675274372101,-0.28442537784576416
1714858344156480800,8.497480712890624,-0.006391582079231739,0.40693071484565735,-0.35047173500061035
1714858344166430200,8.50743017578125,-0.034088436514139175,0.4431496858596802,-0.42504018545150757
1714858344176379600,8.517379638671875,-0.06924213469028473,0.5305013060569763,-0.5113265514373779
1714858344186329000,8.5273291015625,-0.10439583659172058,0.6231792569160461,-0.5912213325500488
1714858344196278500,8.537278564453125,-0.1310274302959442,0.6519413590431213,-0.6540718674659729
1714858344206228000,8.54722802734375,-0.15659375488758087,0.619983434677124,-0.6828339695930481
1714858344216177400,8.557177490234375,-0.17150744795799255,0.5049349665641785,-0.670050859451294
1714858344226126800,8.567126953125,-0.16724638640880585,0.30466538667678833,-0.6178529262542725
1714858344236076300,8.577076171875,-0.13528847694396973,0.0330231711268425,-0.5464802384376526
1714858344246025700,8.587025634765626,-0.09587372839450836,-0.18535587191581726,-0.4846949577331543
1714858344255975200,8.59697509765625,-0.06285055726766586,-0.33129698038101196,-0.4431496858596802
1714858344265924600,8.606924560546876,-0.05219791829586029,-0.452737033367157,-0.4101265072822571
1714858344275874000,8.6168740234375,-0.066046342253685,-0.5560676455497742,-0.377103328704834
1714858344285823500,8.626823486328124,-0.10546109825372696,-0.6008086800575256,-0.3483411967754364
1714858344295773000,8.63677294921875,-0.1597895473241806,-0.5432844758033752,-0.32170963287353516
1714858344305722400,8.646722412109375,-0.21731378138065338,-0.42930126190185547,-0.2833601236343384
1714858344315671800,8.656671875,-0.26631590723991394,-0.2950780391693115,-0.23222747445106506
1714858344325621200,8.666621337890625,-0.27057695388793945,-0.20985694229602814,-0.19174745678901672
1714858344335570700,8.67657080078125,-0.21305273473262787,-0.17044217884540558,-0.18429060280323029
1714858344345519900,8.686519775390625,-0.1267663687467575,-0.11717899888753891,-0.21305273473262787
1714858344355469300,8.69646923828125,-0.05326318368315697,-0.10013478249311447,-0.2577938139438629
1714858344365418800,8.706418701171875,-0.012783164158463478,-0.15126743912696838,-0.30892646312713623
1714858344375368200,8.7163681640625,-0.0021305272821336985,-0.24181485176086426,-0.35899385809898376
1714858344385317600,8.726317626953126,-0.018109481781721115,-0.32810118794441223,-0.39734333753585815
1714858344395267000,8.73626708984375,-0.07350318878889084,-0.366450697183609,-0.42504018545150757
1714858344405216500,8.746216552734374,-0.1597895473241806,-0.36432015895843506,-0.4410191476345062
1714858344415166000,8.756166015625,-0.24288010597229004,-0.3302317261695862,-0.442084401845932
1714858344425115400,8.766115478515625,-0.30786117911338806,-0.2833601236343384,-0.42930126190185547
1714858344435064800,8.77606494140625,-0.3440801501274109,-0.24394537508487701,-0.40160438418388367
1714858344445014300,8.78601416015625,-0.3334275186061859,-0.24074958264827728,-0.37390753626823425
1714858344454963700,8.795963623046875,-0.2727074921131134,-0.2354232668876648,-0.35579806566238403
1714858344464913200,8.8059130859375,-0.17470324039459229,-0.20985694229602814,-0.3568633198738098
1714858344474862600,8.815862548828125,-0.061785291880369186,-0.17044217884540558,-0.3717769980430603
1714858344484812000,8.82581201171875,0.04367581009864807,-0.1363537460565567,-0.38775596022605896
1714858344494761500,8.835761474609376,0.13954953849315643,-0.11504847556352615,-0.3920170068740845
1714858344504711000,8.8457109375,0.22264009714126587,-0.13848426938056946,-0.3760380744934082
1714858344514660400,8.855660400390626,0.2876211702823639,-0.17789903283119202,-0.34514543414115906
1714858344524610000,8.865610107421874,0.32703593373298645,-0.188551664352417,-0.3163833022117615
1714858344534559500,8.8755595703125,0.3398191034793854,-0.17150744795799255,-0.2833601236343384
1714858344544509000,8.885509033203125,0.32597067952156067,-0.14381058514118195,-0.24074958264827728
1714858344554458400,8.895458251953125,0.29933908581733704,-0.1416800618171692,-0.18642114102840424
1714858344564407800,8.90540771484375,0.27057695388793945,-0.13741901516914368,-0.13422322273254395
1714858344574357200,8.915357177734375,0.24820642173290253,-0.08309056609869003,-0.09161267429590225
1714858344584306700,8.925306640625,0.24181485176086426,-0.011717899702489376,-0.054328445345163345
1714858344594256400,8.93525634765625,0.24394537508487701,0.01597895473241806,-0.005326318088918924
1714858344604205800,8.945205810546875,0.24607589840888977,-0.011717899702489376,0.05539371073246002
1714858344614155300,8.9551552734375,0.24714116752147675,-0.03515370190143585,0.11824426054954529
1714858344624104700,8.965104736328126,0.25246748328208923,-0.011717899702489376,0.17150744795799255
1714858344634054100,8.97505419921875,0.2599243223667145,0.03515370190143585,0.21092219650745392
1714858344644003600,8.985003662109374,0.27057695388793945,0.066046342253685,0.23861905932426453
1714858344653953300,8.994953369140624,0.2780338227748871,0.0703074038028717,0.2503369450569153
1714858344663902700,9.00490283203125,0.2716422379016876,0.1033305749297142,0.24714116752147675
1714858344673852200,9.01485205078125,0.25672852993011475,0.15765902400016785,0.245010644197464
1714858344683801600,9.024801513671875,0.24820642173290253,0.20879167318344116,0.24607589840888977
1714858344693751000,9.0347509765625,0.26098960638046265,0.2812296152114868,0.24074958264827728
1714858344703700500,9.044700439453125,0.28975170850753784,0.2684464454650879,0.23648852109909058
1714858344713650000,9.05464990234375,0.30892646312713623,0.1928127259016037,0.24074958264827728
1714858344723599600,9.064599609375,0.31318750977516174,0.10439583659172058,0.2396843135356903
1714858344733549000,9.074549072265626,0.3067959249019623,0.008522109128534794,0.2300969511270523
1714858344743498500,9.08449853515625,0.2972085475921631,-0.009587372653186321,0.20453062653541565
1714858344753448000,9.094447998046874,0.2822948694229126,0.042610544711351395,0.17150744795799255
1714858344763397400,9.1043974609375,0.2599243223667145,0.07882951200008392,0.14807164669036865
1714858344773346800,9.114346923828125,0.2396843135356903,0.13315795361995697,0.13209268450737
1714858344783296500,9.124296630859375,0.23861905932426453,0.2769685387611389,0.09587372839450836
1714858344793246000,9.134245849609375,0.25246748328208923,0.3760380744934082,0.05113265663385391
1714858344803195400,9.1441953125,0.2620548605918884,0.34514543414115906,0.025566328316926956
1714858344813144800,9.154144775390625,0.2503369450569153,0.25246748328208923,0.017044218257069588
1714858344823094300,9.16409423828125,0.21731378138065338,0.14274533092975616,0.01597895473241806
1714858344833043700,9.174043701171875,0.17789903283119202,0.05113265663385391,0.012783164158463478
1714858344842993200,9.1839931640625,0.14913691580295563,-0.03515370190143585,0.01597895473241806
1714858344852942800,9.19394287109375,0.12463584542274475,-0.14913691580295563,0.034088436514139175
1714858344862892300,9.203892333984374,0.10226531326770782,-0.2631201148033142,0.06711161136627197
1714858344872841700,9.213841796875,0.08735162019729614,-0.2929475009441376,0.0990695208311081
1714858344882791200,9.223791259765624,0.0894821435213089,-0.24074958264827728,0.1267663687467575
1714858344892740600,9.23374072265625,0.11398320645093918,-0.1555284857749939,0.14487585425376892
1714858344902690000,9.24368994140625,0.1502021700143814,-0.06285055726766586,0.14274533092975616
1714858344912639700,9.2536396484375,0.18429060280323029,0.021305272355675697,0.1129179447889328
1714858344922589200,9.263589111328125,0.2077264040708542,0.06711161136627197,0.06285055726766586
1714858344932538600,9.27353857421875,0.2215748429298401,0.07456845790147781,0.0021305272821336985
1714858344942488000,9.283488037109375,0.2215748429298401,0.066046342253685,-0.06072002649307251
1714858344952437500,9.2934375,0.20133483409881592,0.050067391246557236,-0.11398320645093918
1714858344962387000,9.303386962890626,0.17044217884540558,0,-0.14274533092975616
1714858344972336400,9.31333642578125,0.11824426054954529,-0.1555284857749939,-0.12037479132413864
1714858344982286000,9.3232861328125,0.04793686419725418,-0.2599243223667145,-0.05752423778176308
1714858344992235500,9.333235595703124,-0.009587372653186321,-0.26418536901474,0.0074568456038832664
1714858345002185000,9.34318505859375,-0.021305272355675697,-0.25566327571868896,0.061785291880369186
1714858345012134400,9.353134521484375,0.0074568456038832664,-0.23222747445106506,0.09374319761991501
1714858345022083800,9.363083740234375,0.05326318368315697,-0.17257271707057953,0.10013478249311447
1714858345032033300,9.373033203125,0.10013478249311447,-0.10546109825372696,0.08735162019729614
1714858345041983000,9.38298291015625,0.12996216118335724,-0.05965476483106613,0.06285055726766586
1714858345051932400,9.392932373046875,0.12996216118335724,-0.01597895473241806,0.029827382415533066
1714858345061881900,9.4028818359375,0.10865689069032669,0.019174745306372643,0.0010652636410668492
1714858345071831300,9.412831298828126,0.08522108942270279,0.02024000883102417,-0.021305272355675697
1714858345081780700,9.42278076171875,0.06711161136627197,-0.018109481781721115,-0.02876211889088154
1714858345091730200,9.432730224609376,0.04900212585926056,-0.11185268312692642,-0.02024000883102417
1714858345101679600,9.4426796875,0.025566328316926956,-0.1597895473241806,-0.01597895473241806
1714858345111629000,9.452629150390624,0.0021305272821336985,-0.1597895473241806,-0.010652636177837849
1714858345121578500,9.46257861328125,-0.011717899702489376,-0.1832253485918045,-0.0010652636410668492
1714858345131528000,9.47252783203125,-0.013848427683115005,-0.19068218767642975,-0.004261054564267397
1714858345141477400,9.482477294921875,-0.004261054564267397,-0.1363537460565567,-0.02450106292963028
1714858345151426800,9.4924267578125,0.006391582079231739,-0.05752423778176308,-0.04367581009864807
1714858345161376300,9.502376220703125,0.022370535880327225,-0.022370535880327225,-0.04900212585926056
1714858345171325700,9.51232568359375,0.04474107176065445,0.011717899702489376,-0.050067391246557236
1714858345181275100,9.522275146484375,0.05326318368315697,0.042610544711351395,-0.041545283049345016
1714858345191224600,9.532224609375,0.03728422895073891,0.022370535880327225,-0.0021305272821336985
1714858345201174000,9.542174072265626,0.008522109128534794,-0.03515370190143585,0.054328445345163345
1714858345211123500,9.55212353515625,-0.021305272355675697,-0.06285055726766586,0.10546109825372696
1714858345221073000,9.562072998046874,-0.041545283049345016,-0.019174745306372643,0.13954953849315643
1714858345231022300,9.572022216796874,-0.038349490612745285,0.09267793595790863,0.14487585425376892
1714858345240971800,9.5819716796875,-0.0010652636410668492,0.20879167318344116,0.1363537460565567
1714858345250921200,9.591921142578125,0.05326318368315697,0.3004043400287628,0.13848426938056946
1714858345260870700,9.60187060546875,0.10546109825372696,0.3621896505355835,0.15765902400016785
1714858345270820000,9.611820068359375,0.13848426938056946,0.4048001766204834,0.1928127259016037
1714858345280769500,9.62176953125,0.13848426938056946,0.42184439301490784,0.23222747445106506
1714858345290718700,9.63171875,0.11930952966213226,0.42184439301490784,0.26951169967651367
1714858345300668200,9.641668212890625,0.10013478249311447,0.41225701570510864,0.2950780391693115
1714858345310617600,9.65161767578125,0.10972215235233307,0.4282359778881073,0.2929475009441376
1714858345320567000,9.661567138671876,0.15339796245098114,0.5422192215919495,0.24820642173290253
1714858345330516500,9.6715166015625,0.24714116752147675,0.7829687595367432,0.12889690697193146
1714858345340466000,9.6814658203125,0.3856254518032074,0.8980172276496887,-0.038349490612745285
1714858345350415400,9.691415283203124,0.48149916529655457,0.9395625591278076,-0.22370536625385284
1714858345360364800,9.70136474609375,0.5006738901138306,0.9715204238891602,-0.39734333753585815
1714858345370314200,9.711314208984374,0.4623244106769562,0.8831035494804382,-0.519848644733429
1714858345380263700,9.721263671875,0.38882121443748474,0.6370276808738708,-0.5518065690994263
1714858345390213000,9.731213134765625,0.2950780391693115,0.31212225556373596,-0.4846949577331543
1714858345400162600,9.74116259765625,0.18535587191581726,0.04474107176065445,-0.3568633198738098
1714858345410112000,9.751112060546875,0.10120004415512085,-0.06285055726766586,-0.2258358895778656
1714858345420061400,9.7610615234375,0.0703074038028717,-0.07350318878889084,-0.12783163785934448
1714858345430011000,9.771010986328125,0.0798947736620903,0.012783164158463478,-0.07243792712688446
1714858345439960300,9.780960205078125,0.122505322098732,0.2024000883102417,-0.08415582776069641
1714858345449909800,9.79090966796875,0.1928127259016037,0.3440801501274109,-0.12570111453533173
1714858345459859200,9.800859130859376,0.2300969511270523,0.41651809215545654,-0.1597895473241806
1714858345469808600,9.81080859375,0.20879167318344116,0.4239749312400818,-0.16298533976078033
1714858345479758000,9.820758056640624,0.17044217884540558,0.38242965936660767,-0.15339796245098114
1714858345489707300,9.830707275390624,0.14807164669036865,0.30786117911338806,-0.14807164669036865
1714858345499656700,9.84065673828125,0.11824426054954529,0.21837905049324036,-0.14381058514118195
1714858345509606100,9.850606201171875,0.08202529698610306,0.09161267429590225,-0.1416800618171692
1714858345519555800,9.860555908203125,0.050067391246557236,-0.04793686419725418,-0.1597895473241806
1714858345529505300,9.87050537109375,0.04048001766204834,-0.09374319761991501,-0.19494324922561646
1714858345539454700,9.880454833984375,0.06072002649307251,-0.013848427683115005,-0.23755379021167755
1714858345549404200,9.890404052734375,0.09800425171852112,0.12357058376073837,-0.28016433119773865
1714858345559353600,9.900353515625,0.13741901516914368,0.3057306706905365,-0.3419496417045593
1714858345569303000,9.910302978515626,0.2066611498594284,0.3611243665218353,-0.38882121443748474
1714858345579252500,9.92025244140625,0.25566327571868896,0.3195790946483612,-0.3920170068740845
1714858345589202200,9.9302021484375,0.2822948694229126,0.23648852109909058,-0.3653854429721832
1714858345599151600,9.940151611328124,0.3302317261695862,0.12144005298614502,-0.3526022732257843
1714858345609101000,9.95010107421875,0.36964648962020874,0.07350318878889084,-0.35899385809898376
1714858345619050500,9.960050537109375,0.35153698921203613,0.1267663687467575,-0.36432015895843506
1714858345629000000,9.97,0.2918822467327118,0.1789642870426178,-0.3632549047470093
1714858345638949400,9.979949462890625,0.2215748429298401,0.16298533976078033,-0.3621896505355835
1714858345648899000,9.989899169921875,0.16831165552139282,0.1267663687467575,-0.3717769980430603
1714858345658848500,9.9998486328125,0.1416800618171692,0.11398320645093918,-0.3898864984512329
1714858345668798000,10.0097978515625,0.12783163785934448,0.11930952966213226,-0.40586546063423157
1714858345678747400,10.019747314453125,0.11611373722553253,0.11398320645093918,-0.40586546063423157
1714858345688696800,10.02969677734375,0.09054741263389587,0.12037479132413864,-0.4005391299724579
1714858345698646300,10.039646240234376,0.041545283049345016,0.11185268312692642,-0.38882121443748474
1714858345708595700,10.049595703125,0,0.04048001766204834,-0.36964648962020874
1714858345718545400,10.05954541015625,-0.012783164158463478,-0.04474107176065445,-0.34514543414115906
1714858345728494800,10.069494873046875,-0.005326318088918924,-0.058589499443769455,-0.3057306706905365
1714858345738444300,10.0794443359375,0.023435799404978752,0.018109481781721115,-0.24181485176086426
1714858345748393700,10.089393798828125,0.061785291880369186,0.11504847556352615,-0.15446323156356812
1714858345758343200,10.09934326171875,0.08628635853528976,0.15126743912696838,-0.042610544711351395
1714858345768292600,10.109292724609375,0.08841688185930252,0.11717899888753891,0.07137266546487808
1714858345778242300,10.1192421875,0.07776424288749695,0.08096003532409668,0.16298533976078033
1714858345788191700,10.129191650390625,0.07776424288749695,0.09054741263389587,0.20453062653541565
1714858345798141200,10.13914111328125,0.09374319761991501,0.10759162902832031,0.1981390416622162
1714858345808090600,10.149090576171876,0.1033305749297142,0.0990695208311081,0.1555284857749939
1714858345818040000,10.1590400390625,0.09587372839450836,0.07243792712688446,0.08415582776069641
1714858345827989500,10.168989501953124,0.08735162019729614,0.05326318368315697,-0.004261054564267397
1714858345837939000,10.17893896484375,0.06817687302827835,0.03941475600004196,-0.0990695208311081
1714858345847888600,10.188888671875,0.050067391246557236,-0.0021305272821336985,-0.15339796245098114
1714858345857838000,10.198838134765625,0.021305272355675697,-0.07563371956348419,-0.1555284857749939
